cond	subj	trial	triad	resp	rt640	1	1	3	1	6697640	1	2	32	2	3228640	1	3	19	2	1115640	1	4	18	3	1072640	1	5	41	3	1540640	1	6	26	2	1083640	1	7	12	3	715640	1	8	33	1	1403640	1	9	38	3	638640	1	10	27	2	1195640	1	11	17	3	641640	1	12	47	3	281640	1	13	44	2	406640	1	14	40	2	722640	1	15	13	2	1040640	1	16	2	2	480640	1	17	10	3	763640	1	18	46	3	446640	1	19	29	3	645640	1	20	8	3	763640	1	21	6	2	646640	1	22	23	2	1193640	1	23	42	2	958640	1	24	7	2	1201640	1	25	48	3	753640	1	26	36	3	622640	1	27	39	2	765640	1	28	9	2	634640	1	29	4	3	714640	1	30	1	2	683640	1	31	22	3	755640	1	32	20	2	757640	1	33	15	3	918640	1	34	30	3	755640	1	35	14	1	837640	1	36	43	2	637640	1	37	11	3	675640	1	38	35	1	783640	1	39	24	3	583640	1	40	28	2	920640	1	41	37	3	640640	1	42	5	1	597640	1	43	16	1	803640	1	44	31	3	718640	1	45	34	1	756640	1	46	21	1	677640	1	47	25	2	801640	1	48	45	1	714640	10	1	11	3	2517640	10	2	37	3	3368640	10	3	21	3	1681640	10	4	4	3	1330640	10	5	7	3	562640	10	6	1	3	489640	10	7	12	3	447640	10	8	30	3	242640	10	9	32	1	2486640	10	10	2	3	524640	10	11	24	3	512640	10	12	6	3	687640	10	13	34	3	206640	10	14	17	3	311640	10	15	26	3	1140640	10	16	41	3	331640	10	17	23	3	2001640	10	18	20	3	8640	10	19	27	3	522640	10	20	31	3	1404640	10	21	36	2	443640	10	22	47	3	531640	10	23	28	1	360640	10	24	25	3	129640	10	25	13	3	63640	10	26	44	2	1013640	10	27	29	3	80640	10	28	35	3	33640	10	29	40	3	1718640	10	30	8	1	1237640	10	31	42	1	441640	10	32	48	3	727640	10	33	15	2	768640	10	34	9	1	1045640	10	35	3	3	1010640	10	36	39	3	130640	10	37	5	3	1166640	10	38	19	3	1450640	10	39	10	3	403640	10	40	45	3	999640	10	41	22	1	1088640	10	42	46	3	232640	10	43	38	3	217640	10	44	14	3	25640	10	45	43	3	1171640	10	46	33	3	2405640	10	47	16	3	1363640	10	48	18	1	437640	11	1	43	3	10788640	11	2	28	3	1675640	11	3	15	2	4190640	11	4	27	2	5194640	11	5	21	2	2592640	11	6	3	3	4228640	11	7	13	2	2391640	11	8	46	3	3509640	11	9	24	3	5762640	11	10	16	1	4013640	11	11	38	3	1961640	11	12	36	2	2639640	11	13	20	2	6184640	11	14	2	3	2592640	11	15	19	3	2113640	11	16	44	3	2675640	11	17	33	2	2115640	11	18	7	1	1800640	11	19	18	3	2189640	11	20	31	3	1953640	11	21	47	2	2041640	11	22	8	3	2037640	11	23	10	3	3615640	11	24	14	2	1553640	11	25	23	1	2188640	11	26	9	1	1234640	11	27	11	2	2120640	11	28	40	2	4268640	11	29	22	2	2517640	11	30	41	2	1443640	11	31	34	1	3594640	11	32	30	3	2515640	11	33	26	2	1920640	11	34	29	2	1553640	11	35	17	1	2190640	11	36	5	2	2231640	11	37	45	2	887640	11	38	35	1	736640	11	39	48	3	1040640	11	40	1	1	2236640	11	41	4	3	1364640	11	42	39	3	2082640	11	43	42	2	3318640	11	44	25	1	2282640	11	45	6	3	2279640	11	46	12	3	1721640	11	47	37	3	4548640	11	48	32	1	2872640	12	1	40	3	3157640	12	2	19	1	2396640	12	3	34	3	1799640	12	4	13	3	1164640	12	5	23	2	4829640	12	6	4	3	1183640	12	7	25	1	3915640	12	8	32	1	3359640	12	9	21	3	1580640	12	10	11	1	2195640	12	11	33	3	2840640	12	12	24	2	2236640	12	13	9	2	1592640	12	14	39	3	1361640	12	15	14	3	2243640	12	16	31	3	1504640	12	17	27	1	3202640	12	18	8	3	1195640	12	19	30	3	1000640	12	20	45	1	3414640	12	21	35	3	3338640	12	22	12	3	1241640	12	23	37	1	1521640	12	24	44	2	2754640	12	25	17	2	1446640	12	26	46	3	2324640	12	27	26	3	1242640	12	28	42	1	1640640	12	29	48	3	1118640	12	30	18	2	2066640	12	31	16	3	2118640	12	32	47	1	1127640	12	33	1	2	1963640	12	34	22	1	1323640	12	35	28	3	4023640	12	36	5	3	2707640	12	37	7	2	1114640	12	38	29	2	2161640	12	39	2	2	1122640	12	40	36	2	5114640	12	41	43	2	3556640	12	42	38	1	1954640	12	43	20	1	2833640	12	44	10	3	1682640	12	45	41	3	2803640	12	46	6	3	836640	12	47	15	3	2435640	12	48	3	1	2084640	13	1	1	1	2036640	13	2	19	2	1756640	13	3	5	2	1706640	13	4	31	2	2026640	13	5	37	2	1197640	13	6	8	1	887640	13	7	27	3	1078640	13	8	22	3	1043640	13	9	6	2	1963640	13	10	40	3	925640	13	11	7	3	764640	13	12	9	3	733640	13	13	23	1	646640	13	14	48	2	647640	13	15	38	2	834640	13	16	26	3	1879640	13	17	32	2	710640	13	18	17	1	642640	13	19	45	3	404640	13	20	3	3	482640	13	21	29	1	835640	13	22	21	1	578640	13	23	13	2	958640	13	24	36	3	2121640	13	25	10	3	838640	13	26	16	2	1479640	13	27	34	3	884640	13	28	12	3	3714640	13	29	15	2	780640	13	30	39	2	740640	13	31	2	2	1717640	13	32	44	1	646640	13	33	4	3	1315640	13	34	14	2	1684640	13	35	46	1	837640	13	36	33	2	798640	13	37	30	2	1127640	13	38	20	3	1603640	13	39	41	1	1448640	13	40	47	2	397640	13	41	42	1	446640	13	42	28	2	916640	13	43	24	3	1167640	13	44	43	3	638640	13	45	18	2	1159640	13	46	11	2	922640	13	47	25	3	681640	13	48	35	1	767640	14	1	16	2	2947640	14	2	4	3	2920640	14	3	47	3	2077640	14	4	41	1	2559640	14	5	21	3	2919640	14	6	32	2	1196640	14	7	18	2	1086640	14	8	24	1	881640	14	9	9	2	926640	14	10	45	1	489640	14	11	13	3	563640	14	12	19	2	1047640	14	13	44	2	277640	14	14	25	2	565640	14	15	38	3	1109640	14	16	15	3	360640	14	17	3	1	364640	14	18	5	1	240640	14	19	17	2	274640	14	20	28	2	322640	14	21	14	2	562640	14	22	34	1	368640	14	23	27	2	680640	14	24	8	3	927640	14	25	26	3	488640	14	26	20	2	1083640	14	27	43	2	278640	14	28	10	2	407640	14	29	39	3	1044640	14	30	37	2	606640	14	31	7	2	1204640	14	32	42	1	1201640	14	33	2	2	238640	14	34	31	3	392640	14	35	33	3	323640	14	36	23	3	1042640	14	37	11	3	526640	14	38	6	3	286640	14	39	12	1	321640	14	40	46	3	162640	14	41	36	2	207640	14	42	22	3	806640	14	43	48	3	363640	14	44	1	2	159640	14	45	30	1	364640	14	46	35	2	239640	14	47	40	3	751640	14	48	29	3	369640	15	1	21	1	1517640	15	2	43	3	678640	15	3	45	1	845640	15	4	32	2	1169640	15	5	47	1	441640	15	6	42	1	925640	15	7	24	3	724640	15	8	10	1	564640	15	9	23	1	340640	15	10	5	1	638640	15	11	22	3	520640	15	12	4	3	441640	15	13	28	2	125640	15	14	33	3	287640	15	15	46	3	483640	15	16	2	2	520640	15	17	15	3	1639640	15	18	8	3	1560640	15	19	14	1	723640	15	20	38	1	605640	15	21	48	3	203640	15	22	39	1	522640	15	23	27	2	722640	15	24	9	2	753640	15	25	7	2	117640	15	26	11	3	121640	15	27	16	1	383640	15	28	3	1	207640	15	29	13	3	45640	15	30	6	3	328640	15	31	26	3	2355640	15	32	12	3	2232640	15	33	20	1	683640	15	34	34	1	879640	15	35	17	2	287640	15	36	44	2	964640	15	37	18	2	247640	15	38	41	1	919640	15	39	29	1	599640	15	40	19	2	238640	15	41	35	1	281640	15	42	37	2	290640	15	43	1	2	206640	15	44	25	2	327640	15	45	31	3	167640	15	46	40	3	801640	15	47	30	1	440640	15	48	36	2	393640	16	1	35	1	1148640	16	2	36	3	763640	16	3	9	3	567640	16	4	15	1	998640	16	5	26	1	607640	16	6	30	2	724640	16	7	27	3	680640	16	8	21	1	487640	16	9	24	3	961640	16	10	28	1	564640	16	11	38	3	728640	16	12	12	2	566640	16	13	5	1	637640	16	14	1	3	599640	16	15	43	3	513640	16	16	3	3	524640	16	17	39	2	564640	16	18	33	1	287640	16	19	25	3	362640	16	20	11	2	527640	16	21	18	3	486640	16	22	19	2	360640	16	23	44	1	287640	16	24	48	2	599640	16	25	20	2	407640	16	26	34	3	525640	16	27	31	2	602640	16	28	17	1	799640	16	29	23	1	556640	16	30	7	3	479640	16	31	29	2	524640	16	32	41	3	765640	16	33	42	3	594640	16	34	2	1	523640	16	35	22	2	464640	16	36	14	2	313640	16	37	8	1	364640	16	38	6	3	779640	16	39	32	3	917640	16	40	13	2	1046640	16	41	10	1	528640	16	42	4	3	606640	16	43	47	2	444640	16	44	37	2	444640	16	45	46	1	566640	16	46	45	3	557640	16	47	40	3	508640	16	48	16	3	599640	17	1	35	1	5979640	17	2	31	3	3956640	17	3	23	1	1313640	17	4	7	3	2195640	17	5	37	2	2875640	17	6	10	3	715640	17	7	12	1	724640	17	8	26	2	641640	17	9	11	2	2594640	17	10	15	3	798640	17	11	48	1	724640	17	12	36	2	632640	17	13	24	1	1240640	17	14	16	2	939640	17	15	4	2	1562640	17	16	18	1	803640	17	17	13	3	637640	17	18	45	2	1154640	17	19	27	3	1233640	17	20	3	3	2160640	17	21	6	3	999640	17	22	29	2	792640	17	23	9	1	677640	17	24	33	3	481640	17	25	25	2	356640	17	26	32	3	1357640	17	27	38	1	1155640	17	28	21	3	715640	17	29	5	1	565640	17	30	39	3	474640	17	31	22	1	797640	17	32	20	1	666640	17	33	17	2	321640	17	34	8	2	318640	17	35	43	2	356640	17	36	14	1	660640	17	37	1	3	993640	17	38	34	1	479640	17	39	30	3	284640	17	40	19	3	742640	17	41	42	2	701640	17	42	40	1	564640	17	43	46	3	605640	17	44	44	2	305640	17	45	2	2	355640	17	46	41	3	875640	17	47	47	1	399640	17	48	28	2	594640	18	1	28	1	3361640	18	2	22	2	5597640	18	3	34	2	289640	18	4	20	3	577640	18	5	18	3	1499640	18	6	4	2	191640	18	7	45	2	416640	18	8	9	1	906640	18	9	44	2	148640	18	10	42	3	5640	18	11	24	2	81640	18	12	6	1	1289640	18	13	14	2	2625640	18	14	37	2	468640	18	15	33	3	857640	18	16	8	1	715640	18	17	26	3	577640	18	18	1	2	924640	18	19	38	2	572640	18	20	27	2	468640	18	21	21	3	519640	18	22	48	2	4640	18	23	7	3	383640	18	24	43	2	17640	18	25	40	3	668640	18	26	11	2	74640	18	27	23	2	767640	18	28	29	3	62640	18	29	2	3	674640	18	30	3	2	32640	18	31	36	2	1005640	18	32	5	1	427640	18	33	30	2	521640	18	34	35	3	393640	18	35	46	2	206640	18	36	41	2	62640	18	37	16	1	674640	18	38	47	1	128640	18	39	32	3	494640	18	40	19	3	185640	18	41	25	1	709640	18	42	12	2	455640	18	43	31	1	45640	18	44	10	1	28640	18	45	39	1	456640	18	46	13	2	266640	18	47	15	1	71640	18	48	17	1	396640	19	1	18	1	2676640	19	2	24	3	1240640	19	3	27	3	1895640	19	4	19	2	1129640	19	5	26	1	977640	19	6	33	1	797640	19	7	25	3	929640	19	8	14	3	881640	19	9	31	2	602640	19	10	4	3	1898640	19	11	12	2	748640	19	12	11	2	697640	19	13	20	2	621640	19	14	35	1	687640	19	15	48	2	655640	19	16	29	2	729640	19	17	38	3	704640	19	18	34	3	564640	19	19	17	1	1661640	19	20	22	3	767640	19	21	46	1	767640	19	22	40	2	527640	19	23	44	1	703640	19	24	43	3	1073640	19	25	2	1	733640	19	26	7	3	777640	19	27	15	2	1196640	19	28	21	1	513640	19	29	9	3	400640	19	30	47	2	1192640	19	31	45	3	589640	19	32	37	2	617640	19	33	3	3	700640	19	34	41	3	607640	19	35	5	2	959640	19	36	8	1	677640	19	37	39	1	2114640	19	38	10	1	623640	19	39	32	2	514640	19	40	16	2	605640	19	41	23	1	751640	19	42	1	3	1692640	19	43	13	1	853640	19	44	30	2	695640	19	45	28	1	618640	19	46	6	2	621640	19	47	42	1	959640	19	48	36	3	660640	2	1	12	3	1799640	2	2	9	3	3276640	2	3	8	2	1118640	2	4	14	3	3912640	2	5	29	3	679640	2	6	34	1	1003640	2	7	27	1	621640	2	8	30	3	285640	2	9	26	2	40640	2	10	17	2	682640	2	11	38	1	477640	2	12	20	1	603640	2	13	40	1	481640	2	14	39	3	487640	2	15	45	2	1080640	2	16	10	3	206640	2	17	3	2	602640	2	18	43	1	637640	2	19	35	2	480640	2	20	16	1	286640	2	21	1	1	719640	2	22	15	3	718640	2	23	21	3	397640	2	24	48	1	565640	2	25	46	2	76640	2	26	22	1	906640	2	27	41	2	384640	2	28	44	2	237640	2	29	33	3	477640	2	30	11	1	163640	2	31	4	2	875640	2	32	24	2	359640	2	33	37	3	405640	2	34	42	2	282640	2	35	31	3	557640	2	36	47	3	599640	2	37	32	1	798640	2	38	5	3	483640	2	39	7	2	198640	2	40	36	2	647640	2	41	19	3	1035640	2	42	23	1	1188640	2	43	18	2	557640	2	44	25	2	203640	2	45	13	3	678640	2	46	2	3	630640	2	47	28	3	13640	2	48	6	1	430640	20	1	8	2	3003640	20	2	22	3	940640	20	3	20	2	765640	20	4	42	1	1053640	20	5	17	2	1816640	20	6	11	1	892640	20	7	48	3	644640	20	8	32	3	683640	20	9	21	1	1211640	20	10	43	2	2338640	20	11	41	3	557640	20	12	29	1	964640	20	13	18	1	396640	20	14	13	1	639640	20	15	7	2	821640	20	16	15	2	1568640	20	17	31	2	399640	20	18	1	3	293640	20	19	24	3	680640	20	20	27	2	777640	20	21	34	3	763640	20	22	39	2	395640	20	23	37	1	576640	20	24	23	1	715640	20	25	25	2	464640	20	26	3	3	483640	20	27	16	2	507640	20	28	35	1	409640	20	29	5	3	415640	20	30	45	1	939640	20	31	14	3	2125640	20	32	6	1	1021640	20	33	2	3	384640	20	34	46	3	483640	20	35	28	3	380640	20	36	36	2	6141640	20	37	10	3	351640	20	38	9	2	525640	20	39	19	1	1613640	20	40	38	2	393640	20	41	44	3	94640	20	42	47	1	281640	20	43	30	3	264640	20	44	4	3	467640	20	45	33	1	872640	20	46	12	3	236640	20	47	26	2	275640	20	48	40	1	3857640	21	1	17	1	3895640	21	2	35	2	3577640	21	3	25	1	7023640	21	4	47	1	2152640	21	5	45	1	1021640	21	6	12	3	2032640	21	7	15	2	1068640	21	8	40	2	874640	21	9	28	2	912640	21	10	19	1	1437640	21	11	30	3	593640	21	12	39	3	1311640	21	13	24	1	1293640	21	14	38	1	568640	21	15	8	3	383640	21	16	23	3	1746640	21	17	13	3	485640	21	18	7	2	1052640	21	19	48	3	613640	21	20	27	1	1080640	21	21	4	3	424640	21	22	18	2	578640	21	23	42	2	1757640	21	24	14	1	529640	21	25	10	3	770640	21	26	46	3	369640	21	27	29	1	1201640	21	28	16	1	1321640	21	29	22	1	586640	21	30	43	2	391640	21	31	11	3	396640	21	32	26	2	450640	21	33	44	2	497640	21	34	6	3	348640	21	35	36	2	265640	21	36	20	1	1108640	21	37	3	1	393640	21	38	32	1	544640	21	39	9	2	721640	21	40	34	1	394640	21	41	2	2	287640	21	42	31	3	367640	21	43	33	3	415640	21	44	21	3	4026640	21	45	41	1	1528640	21	46	37	2	463640	21	47	5	1	225640	21	48	1	2	149640	22	1	31	2	2219640	22	2	15	2	860640	22	3	22	3	655640	22	4	35	1	555640	22	5	18	3	543640	22	6	8	1	1265640	22	7	20	2	484640	22	8	34	3	429640	22	9	45	3	922640	22	10	46	1	698640	22	11	40	2	684640	22	12	25	3	333640	22	13	27	3	501640	22	14	32	1	1104640	22	15	5	1	642640	22	16	21	1	618640	22	17	28	3	1549640	22	18	42	1	699640	22	19	14	1	669640	22	20	17	2	745640	22	21	36	2	549640	22	22	4	3	569640	22	23	6	3	434640	22	24	19	2	2495640	22	25	29	3	602640	22	26	13	1	1417640	22	27	23	1	526640	22	28	48	3	301640	22	29	2	2	336640	22	30	12	3	522640	22	31	30	1	602640	22	32	26	3	794640	22	33	38	3	1119640	22	34	44	2	454640	22	35	43	2	491640	22	36	11	3	291640	22	37	41	1	401640	22	38	7	3	873640	22	39	47	3	351640	22	40	16	1	333640	22	41	39	2	518640	22	42	9	3	978640	22	43	33	1	302640	22	44	3	1	445640	22	45	1	2	528640	22	46	37	1	607640	22	47	24	1	431640	22	48	10	3	781640	23	1	10	3	3285640	23	2	11	2	1390640	23	3	26	1	1118640	23	4	41	1	1914640	23	5	20	2	687640	23	6	19	2	830640	23	7	30	2	508640	23	8	5	2	586640	23	9	23	1	517640	23	10	32	2	273640	23	11	47	2	175640	23	12	17	1	890640	23	13	45	3	577640	23	14	1	3	541640	23	15	7	3	718640	23	16	35	1	533640	23	17	31	2	772640	23	18	16	2	437640	23	19	12	2	385640	23	20	24	3	1172640	23	21	13	2	628640	23	22	46	1	410640	23	23	21	2	530640	23	24	40	1	2161640	23	25	8	1	553640	23	26	28	1	463640	23	27	48	2	337640	23	28	29	2	381640	23	29	42	1	798640	23	30	4	1	453640	23	31	22	3	677640	23	32	15	1	738640	23	33	9	3	477640	23	34	6	2	418640	23	35	3	3	444640	23	36	2	1	524640	23	37	18	3	876640	23	38	33	2	546640	23	39	25	3	389640	23	40	37	2	889640	23	41	39	2	1137640	23	42	44	1	621640	23	43	38	1	797640	23	44	27	1	1252640	23	45	34	3	661640	23	46	43	3	415640	23	47	36	1	890640	23	48	14	3	305640	24	1	46	2	2091640	24	2	35	2	1443640	24	3	33	3	828640	24	4	2	2	760640	24	5	13	3	441640	24	6	6	3	1000640	24	7	28	3	840640	24	8	16	3	2199640	24	9	15	3	437640	24	10	40	2	500640	24	11	48	3	1773640	24	12	1	2	456640	24	13	29	3	348640	24	14	37	1	1337640	24	15	12	1	412640	24	16	18	2	1171640	24	17	42	1	1092640	24	18	32	1	500640	24	19	39	3	1293640	24	20	8	3	633640	24	21	23	1	669640	24	22	47	1	363640	24	23	10	2	795640	24	24	11	3	369640	24	25	44	2	447640	24	26	5	1	241640	24	27	17	2	615640	24	28	36	2	410640	24	29	38	1	387640	24	30	20	1	329640	24	31	26	3	177640	24	32	31	3	331640	24	33	9	2	356640	24	34	22	2	768640	24	35	30	3	736640	24	36	19	1	634640	24	37	43	1	912640	24	38	41	3	445640	24	39	25	1	460640	24	40	4	3	384640	24	41	21	1	644640	24	42	27	2	523640	24	43	3	1	348640	24	44	45	1	488640	24	45	34	3	543640	24	46	14	1	292640	24	47	7	1	67640	24	48	24	1	360640	25	1	45	1	1511640	25	2	39	1	2140640	25	3	27	3	1902640	25	4	46	2	1682640	25	5	6	3	2425640	25	6	3	1	1027640	25	7	42	2	1497640	25	8	21	1	1228640	25	9	37	1	1865640	25	10	38	3	2307640	25	11	24	3	1480640	25	12	23	1	1017640	25	13	11	2	1227640	25	14	31	3	985640	25	15	10	3	1523640	25	16	18	2	860640	25	17	5	1	864640	25	18	48	3	913640	25	19	14	1	751640	25	20	32	1	892640	25	21	16	1	915640	25	22	29	3	1298640	25	23	15	3	828640	25	24	43	2	954640	25	25	40	2	1247640	25	26	1	2	958640	25	27	34	1	964640	25	28	28	3	668640	25	29	26	2	905640	25	30	20	2	931640	25	31	19	3	1092640	25	32	36	2	949640	25	33	22	1	937640	25	34	25	2	907640	25	35	12	3	921640	25	36	47	3	1224640	25	37	41	3	1076640	25	38	17	2	849640	25	39	35	2	817640	25	40	44	2	1245640	25	41	13	3	923640	25	42	7	2	1051640	25	43	33	3	867640	25	44	2	2	1209640	25	45	9	2	849640	25	46	4	3	1553640	25	47	30	3	1183640	25	48	8	3	1536640	26	1	9	3	2361640	26	2	2	3	697640	26	3	23	1	683640	26	4	14	3	523640	26	5	4	1	683640	26	6	44	2	830640	26	7	15	2	826640	26	8	21	1	391640	26	9	3	3	459640	26	10	19	2	430640	26	11	1	3	537640	26	12	27	3	1310640	26	13	29	2	556640	26	14	33	1	386640	26	15	47	2	1539640	26	16	5	2	958640	26	17	20	2	531640	26	18	36	3	355640	26	19	41	1	594640	26	20	45	3	589640	26	21	40	3	1036640	26	22	30	2	594640	26	23	12	2	527640	26	24	48	2	543640	26	25	10	1	354640	26	26	8	1	447640	26	27	34	2	1183640	26	28	35	1	369640	26	29	16	2	625640	26	30	25	3	691640	26	31	46	1	627640	26	32	17	1	504640	26	33	43	3	627640	26	34	24	1	361640	26	35	13	2	649640	26	36	38	2	433640	26	37	7	3	574640	26	38	42	3	393640	26	39	31	1	366640	26	40	22	2	415640	26	41	26	3	570640	26	42	11	2	385640	26	43	37	2	131640	26	44	39	1	179640	26	45	28	1	735640	26	46	18	3	713640	26	47	6	2	590640	26	48	32	3	364640	27	1	48	3	609640	27	2	16	2	516640	27	3	20	2	464640	27	4	42	2	452640	27	5	29	2	499640	27	6	38	1	414640	27	7	44	2	328640	27	8	22	3	369640	27	9	45	1	320640	27	10	27	2	297640	27	11	31	3	443640	27	12	2	2	427640	27	13	12	3	473640	27	14	24	3	382640	27	15	14	1	528640	27	16	1	2	401640	27	17	40	1	409640	27	18	30	1	418640	27	19	10	3	332640	27	20	26	2	435640	27	21	13	3	449640	27	22	47	1	418640	27	23	18	2	620640	27	24	25	1	414640	27	25	46	2	394640	27	26	21	3	382640	27	27	33	3	321640	27	28	19	2	969640	27	29	4	3	592640	27	30	32	1	317640	27	31	41	2	452640	27	32	11	3	372640	27	33	39	3	420640	27	34	28	2	382640	27	35	36	2	528640	27	36	35	2	320640	27	37	37	3	521640	27	38	7	2	312640	27	39	17	2	382640	27	40	15	3	208640	27	41	9	1	338640	27	42	3	1	300640	27	43	34	1	190640	27	44	23	1	412640	27	45	5	1	404640	27	46	43	2	395640	27	47	8	2	336640	27	48	6	1	476640	28	1	48	3	3071640	28	2	30	1	1180640	28	3	34	3	767640	28	4	36	3	687640	28	5	16	3	590640	28	6	1	3	843640	28	7	44	3	603640	28	8	14	3	890640	28	9	28	3	756640	28	10	19	2	625640	28	11	38	3	627640	28	12	43	1	1018640	28	13	3	2	747640	28	14	46	3	938640	28	15	8	3	907640	28	16	24	3	1178640	28	17	42	1	907640	28	18	27	1	521640	28	19	17	3	1082640	28	20	22	3	921640	28	21	12	1	426640	28	22	2	3	1491640	28	23	7	1	515640	28	24	15	1	641640	28	25	32	1	631640	28	26	21	3	559640	28	27	26	2	883640	28	28	33	3	460640	28	29	23	3	671640	28	30	9	2	667640	28	31	20	3	522640	28	32	11	3	426640	28	33	25	3	435640	28	34	29	3	513640	28	35	39	2	575640	28	36	45	1	682640	28	37	40	1	602640	28	38	31	3	586640	28	39	47	1	564640	28	40	10	3	331640	28	41	18	2	340640	28	42	6	1	286640	28	43	37	3	286640	28	44	35	1	207640	28	45	41	3	301640	28	46	5	3	1026640	28	47	4	1	563640	28	48	13	3	251640	29	1	5	1	4288640	29	2	23	2	1330640	29	3	16	3	1189640	29	4	11	3	3546640	29	5	7	3	1832640	29	6	43	2	1056640	29	7	3	3	2314640	29	8	33	3	2911640	29	9	47	2	1405640	29	10	8	3	6556640	29	11	15	3	2113640	29	12	35	3	1919640	29	13	38	3	5510640	29	14	48	2	554640	29	15	9	3	737640	29	16	10	1	714640	29	17	22	1	673640	29	18	24	3	1310640	29	19	20	2	330640	29	20	19	2	338640	29	21	2	1	637640	29	22	31	2	338640	29	23	12	2	445640	29	24	13	2	493640	29	25	25	2	456640	29	26	28	1	586640	29	27	30	2	88640	29	28	18	1	161640	29	29	27	3	88640	29	30	46	1	592640	29	31	45	1	589640	29	32	14	3	410640	29	33	29	2	19640	29	34	34	3	1117640	29	35	4	1	370640	29	36	6	2	66640	29	37	39	2	69640	29	38	21	1	1322640	29	39	40	2	1018640	29	40	26	3	5640	29	41	17	3	117640	29	42	36	3	691640	29	43	1	3	673640	29	44	32	2	400640	29	45	42	2	1032640	29	46	44	1	606640	29	47	41	1	493640	29	48	37	2	501640	3	1	46	3	6221640	3	2	19	2	1240640	3	3	34	1	722640	3	4	6	3	243640	3	5	12	3	3808640	3	6	32	1	1243640	3	7	13	3	484640	3	8	10	3	477640	3	9	40	3	444640	3	10	17	2	5241640	3	11	28	2	1158640	3	12	42	2	1211640	3	13	35	3	1405640	3	14	27	3	6584640	3	15	30	1	719640	3	16	22	3	1597640	3	17	24	3	805640	3	18	16	1	482640	3	19	48	3	318640	3	20	9	2	916640	3	21	8	2	1728640	3	22	33	3	525640	3	23	18	2	395640	3	24	20	2	1963640	3	25	7	2	607640	3	26	3	1	404640	3	27	1	2	361640	3	28	45	1	447640	3	29	43	2	238640	3	30	39	1	1157640	3	31	31	3	562640	3	32	37	1	4281640	3	33	36	2	797640	3	34	38	1	724640	3	35	23	2	1362640	3	36	2	2	607640	3	37	4	3	484640	3	38	14	2	2118640	3	39	44	2	606640	3	40	21	3	564640	3	41	15	3	914640	3	42	11	3	1686640	3	43	25	2	679640	3	44	5	1	476640	3	45	41	2	1082640	3	46	47	1	238640	3	47	26	3	481640	3	48	29	3	633640	30	1	15	1	3983640	30	2	39	1	1829640	30	3	32	3	1706640	30	4	7	1	774640	30	5	4	3	2633640	30	6	47	1	656640	30	7	28	2	1082640	30	8	46	3	1370640	30	9	18	3	914640	30	10	10	3	1935640	30	11	31	3	1402640	30	12	20	2	3801640	30	13	14	3	3162640	30	14	36	2	601640	30	15	2	2	522640	30	16	29	3	747640	30	17	23	2	2743640	30	18	9	2	482640	30	19	5	1	395640	30	20	11	1	1246640	30	21	38	3	2623640	30	22	1	2	449640	30	23	19	3	1234640	30	24	17	2	847640	30	25	6	3	671640	30	26	3	1	3517640	30	27	16	1	785640	30	28	48	3	468640	30	29	21	3	1866640	30	30	45	1	164640	30	31	22	2	2924640	30	32	37	2	797640	30	33	25	1	226640	30	34	33	3	470640	30	35	41	2	1323640	30	36	42	2	570640	30	37	30	3	753640	30	38	34	1	383640	30	39	44	2	658640	30	40	13	3	477640	30	41	40	2	1233640	30	42	26	2	1199640	30	43	8	3	1699640	30	44	24	2	1550640	30	45	27	1	1484640	30	46	35	1	780640	30	47	43	2	398640	30	48	12	2	2644640	4	1	9	2	1195640	4	2	15	2	2153640	4	3	19	3	1247640	4	4	27	2	837640	4	5	21	1	1279640	4	6	16	3	1324640	4	7	18	1	1122640	4	8	5	1	1001640	4	9	17	2	1717640	4	10	11	3	927640	4	11	4	3	686640	4	12	44	2	521640	4	13	25	1	522640	4	14	34	3	1361640	4	15	13	1	1043640	4	16	32	1	725640	4	17	7	1	845640	4	18	38	3	789640	4	19	45	1	420640	4	20	10	2	367640	4	21	14	1	678640	4	22	26	3	487640	4	23	29	3	362640	4	24	20	2	407640	4	25	36	2	445640	4	26	40	2	1087640	4	27	31	3	562640	4	28	35	2	446640	4	29	1	2	450640	4	30	30	1	401640	4	31	39	2	478640	4	32	28	2	446640	4	33	41	3	688640	4	34	46	3	322640	4	35	37	2	403640	4	36	42	3	520640	4	37	2	2	360640	4	38	47	1	299640	4	39	8	3	430640	4	40	12	1	485640	4	41	24	3	760640	4	42	33	3	685640	4	43	6	3	360640	4	44	22	3	508640	4	45	48	3	337640	4	46	3	1	85640	4	47	43	2	402640	4	48	23	1	641640	5	1	5	1	1194640	5	2	9	2	722640	5	3	23	1	651640	5	4	24	3	663640	5	5	35	1	683640	5	6	41	1	780640	5	7	48	3	440640	5	8	26	2	445640	5	9	44	2	447640	5	10	32	1	733640	5	11	36	2	627640	5	12	16	3	961640	5	13	4	3	607640	5	14	6	3	563640	5	15	21	1	1030640	5	16	30	3	591640	5	17	27	2	522640	5	18	11	3	523640	5	19	28	2	765640	5	20	8	1	634640	5	21	7	3	1237640	5	22	45	1	559640	5	23	13	2	445640	5	24	40	1	519640	5	25	46	3	398640	5	26	2	2	409640	5	27	37	3	847640	5	28	39	1	918640	5	29	19	3	638640	5	30	14	3	521640	5	31	1	2	484640	5	32	25	1	438640	5	33	47	1	762640	5	34	3	1	366640	5	35	18	2	481640	5	36	34	1	409640	5	37	33	3	366640	5	38	17	2	360640	5	39	38	3	1326640	5	40	22	3	816640	5	41	20	2	417640	5	42	43	3	365640	5	43	12	2	358640	5	44	31	2	844640	5	45	10	2	926640	5	46	29	3	1246640	5	47	42	3	1607640	5	48	15	3	563640	6	1	21	1	11655640	6	2	26	2	846640	6	3	10	2	366640	6	4	3	3	27751640	6	5	39	1	1921640	6	6	18	3	600640	6	7	46	2	554640	6	8	45	3	1357640	6	9	1	3	281640	6	10	5	1	2445640	6	11	19	1	1561640	6	12	31	1	4917640	6	13	17	1	1839640	6	14	29	2	401640	6	15	24	2	197640	6	16	47	3	1405640	6	17	43	3	241640	6	18	22	1	1445640	6	19	13	3	1080640	6	20	20	1	1122640	6	21	37	1	364640	6	22	28	1	754640	6	23	6	2	438640	6	24	12	3	1636640	6	25	15	2	755640	6	26	44	1	878640	6	27	23	2	843640	6	28	33	1	955640	6	29	41	2	1158640	6	30	36	2	398640	6	31	42	2	168640	6	32	38	1	1280640	6	33	34	3	2520640	6	34	35	1	1594640	6	35	7	3	521640	6	36	16	3	640640	6	37	4	2	402640	6	38	25	1	799640	6	39	40	1	1484640	6	40	32	3	718640	6	41	27	2	355640	6	42	11	1	1198640	6	43	8	3	1085640	6	44	48	2	201640	6	45	30	2	1194640	6	46	9	3	521640	6	47	14	2	879640	6	48	2	1	1364640	7	1	35	1	1374640	7	2	3	1	928640	7	3	4	3	568640	7	4	16	2	443640	7	5	24	3	876640	7	6	43	2	325640	7	7	1	2	246640	7	8	32	2	678640	7	9	42	1	887640	7	10	22	1	562640	7	11	28	2	689640	7	12	26	2	685640	7	13	23	2	522640	7	14	17	3	604640	7	15	31	2	443640	7	16	21	3	966640	7	17	27	2	840640	7	18	36	2	644640	7	19	5	1	805640	7	20	48	3	425640	7	21	11	1	628640	7	22	12	1	1284640	7	23	8	1	1056640	7	24	7	2	590640	7	25	9	2	671640	7	26	29	1	759640	7	27	38	1	725640	7	28	41	2	1132640	7	29	10	3	434640	7	30	47	1	608640	7	31	20	1	808640	7	32	40	1	726640	7	33	15	3	967640	7	34	14	1	642640	7	35	34	1	406640	7	36	30	3	802640	7	37	45	1	362640	7	38	6	3	488640	7	39	33	3	404640	7	40	2	2	883640	7	41	19	2	1918640	7	42	46	3	358640	7	43	18	2	286640	7	44	13	3	323640	7	45	37	3	1044640	7	46	39	2	1166640	7	47	25	2	40640	7	48	44	2	284640	8	1	16	3	1789640	8	2	41	1	839640	8	3	44	1	1242640	8	4	28	3	1109640	8	5	3	1	804640	8	6	31	2	522640	8	7	25	2	876640	8	8	17	1	687640	8	9	14	2	844640	8	10	2	1	2688640	8	11	33	1	644640	8	12	4	3	1490640	8	13	8	2	1166640	8	14	5	1	672640	8	15	45	3	1201640	8	16	42	1	840640	8	17	12	1	686640	8	18	7	2	885640	8	19	11	1	643640	8	20	36	3	687640	8	21	6	3	550640	8	22	15	1	651640	8	23	24	1	1245640	8	24	34	3	527640	8	25	13	3	1450640	8	26	26	2	1283640	8	27	38	1	360640	8	28	46	3	248640	8	29	48	3	83640	8	30	21	1	521640	8	31	22	3	685640	8	32	19	1	602640	8	33	18	3	1561640	8	34	30	3	368640	8	35	43	2	645640	8	36	27	1	1130640	8	37	1	2	560640	8	38	35	1	1038640	8	39	20	1	684640	8	40	37	1	702640	8	41	39	2	450640	8	42	40	2	363640	8	43	23	1	372640	8	44	10	1	566640	8	45	9	3	1070640	8	46	47	1	769640	8	47	29	2	565640	8	48	32	2	281640	9	1	13	1	2079640	9	2	35	1	1367640	9	3	30	2	1841640	9	4	45	3	2683640	9	5	46	3	1001640	9	6	48	3	1838640	9	7	32	1	1044640	9	8	22	3	1048640	9	9	37	3	1000640	9	10	17	2	720640	9	11	14	2	723640	9	12	28	3	648640	9	13	6	3	758640	9	14	2	2	1846640	9	15	1	2	610640	9	16	8	2	482640	9	17	44	3	1000640	9	18	23	2	399640	9	19	7	2	1161640	9	20	41	1	889640	9	21	39	3	806640	9	22	12	3	527640	9	23	36	2	450640	9	24	9	1	364640	9	25	3	2	398640	9	26	26	2	331640	9	27	4	3	953640	9	28	47	1	1302640	9	29	42	3	447640	9	30	16	3	842640	9	31	15	3	447640	9	32	11	3	480640	9	33	5	1	450640	9	34	20	3	1482640	9	35	24	2	907640	9	36	27	2	880640	9	37	19	2	411640	9	38	29	3	800640	9	39	18	2	510640	9	40	43	1	1004640	9	41	10	3	284640	9	42	34	1	606640	9	43	25	2	404640	9	44	38	1	1644640	9	45	40	2	572640	9	46	33	2	325640	9	47	21	1	769640	9	48	31	2	11231024	1	1	17	1	14901024	1	2	9	1	8601024	1	3	48	3	7361024	1	4	47	1	6241024	1	5	14	1	6181024	1	6	15	3	7431024	1	7	25	2	4191024	1	8	7	2	5461024	1	9	11	1	3431024	1	10	21	3	4611024	1	11	42	2	5791024	1	12	33	3	3811024	1	13	13	3	3441024	1	14	16	3	4601024	1	15	26	2	3821024	1	16	31	3	3041024	1	17	23	1	10931024	1	18	4	3	3481024	1	19	35	1	7821024	1	20	43	2	4251024	1	21	12	3	7371024	1	22	1	2	4261024	1	23	30	3	5421024	1	24	38	3	6191024	1	25	8	2	6631024	1	26	6	3	4621024	1	27	36	2	3821024	1	28	10	3	6621024	1	29	32	1	6191024	1	30	39	1	7451024	1	31	3	1	4621024	1	32	28	3	5001024	1	33	19	2	3461024	1	34	34	1	5031024	1	35	41	3	4681024	1	36	45	1	5071024	1	37	40	3	4581024	1	38	20	3	4431024	1	39	5	1	4281024	1	40	24	3	15341024	1	41	29	1	8041024	1	42	46	3	6591024	1	43	18	2	3661024	1	44	37	2	5401024	1	45	22	3	5481024	1	46	44	2	3461024	1	47	27	2	4651024	1	48	2	2	4231024	10	1	20	3	13811024	10	2	32	3	6291024	10	3	43	3	4291024	10	4	33	1	6271024	10	5	42	1	7461024	10	6	44	3	5871024	10	7	13	2	7001024	10	8	30	2	7491024	10	9	11	2	6671024	10	10	7	3	6711024	10	11	22	3	3471024	10	12	28	3	5611024	10	13	18	3	6581024	10	14	41	3	5031024	10	15	46	1	4731024	10	16	16	3	5431024	10	17	24	3	5451024	10	18	40	3	4281024	10	19	38	3	4581024	10	20	5	1	4611024	10	21	45	3	3881024	10	22	19	2	1851024	10	23	1	3	4721024	10	24	37	2	5451024	10	25	39	1	3081024	10	26	26	2	7441024	10	27	9	3	6251024	10	28	21	1	3481024	10	29	25	3	3521024	10	30	17	1	5431024	10	31	6	2	5251024	10	32	35	1	4731024	10	33	2	2	6651024	10	34	10	1	4461024	10	35	31	2	4601024	10	36	23	1	3851024	10	37	4	3	3121024	10	38	8	1	7071024	10	39	29	3	6091024	10	40	27	1	5091024	10	41	34	3	5291024	10	42	3	1	3041024	10	43	14	3	2751024	10	44	47	2	3881024	10	45	36	3	3661024	10	46	48	2	4041024	10	47	15	2	3381024	10	48	12	2	3981024	11	1	34	3	21691024	11	2	40	3	11361024	11	3	22	3	5441024	11	4	10	1	4471024	11	5	44	1	3801024	11	6	32	2	3421024	11	7	12	2	3411024	11	8	13	2	9721024	11	9	35	3	4651024	11	10	24	1	2921024	11	11	28	1	7051024	11	12	31	1	3771024	11	13	17	1	4201024	11	14	9	3	5451024	11	15	15	2	6611024	11	16	23	1	6181024	11	17	39	1	3851024	11	18	18	3	2671024	11	19	46	1	3091024	11	20	19	1	5391024	11	21	27	1	5081024	11	22	5	1	5381024	11	23	7	3	5471024	11	24	4	3	5821024	11	25	41	1	6071024	11	26	3	1	8631024	11	27	43	3	5411024	11	28	37	2	3291024	11	29	21	2	4171024	11	30	6	1	9801024	11	31	20	1	6991024	11	32	42	3	3421024	11	33	29	2	5781024	11	34	30	1	5391024	11	35	2	2	4281024	11	36	38	1	3821024	11	37	33	3	5441024	11	38	48	3	2221024	11	39	47	1	2701024	11	40	14	2	2591024	11	41	1	2	4191024	11	42	25	3	3081024	11	43	36	3	6961024	11	44	8	2	2891024	11	45	26	2	7821024	11	46	11	2	3351024	11	47	16	2	3451024	11	48	45	1	6011024	12	1	40	2	4661024	12	2	9	3	3461024	12	3	46	1	3031024	12	4	21	1	5871024	12	5	26	2	7441024	12	6	1	2	5021024	12	7	13	3	5841024	12	8	42	3	5491024	12	9	15	3	3401024	12	10	28	3	2591024	12	11	37	3	5631024	12	12	31	3	2701024	12	13	17	2	2191024	12	14	38	1	671024	12	15	36	2	2291024	12	16	43	2	281024	12	17	41	3	7011024	12	18	47	1	3461024	12	19	4	3	2631024	12	20	14	1	521024	12	21	45	1	3051024	12	22	22	1	4291024	12	23	19	2	6221024	12	24	20	1	5861024	12	25	7	2	6241024	12	26	6	3	4451024	12	27	24	3	2841024	12	28	5	1	12531024	12	29	32	2	7331024	12	30	2	2	3021024	12	31	25	2	5851024	12	32	29	1	5451024	12	33	18	2	3441024	12	34	3	2	4201024	12	35	35	2	2291024	12	36	34	1	3731024	12	37	8	2	921024	12	38	10	3	3101024	12	39	23	2	1831024	12	40	11	3	3881024	12	41	48	3	221024	12	42	33	3	8161024	12	43	16	1	2621024	12	44	44	2	6021024	12	45	12	3	3231024	12	46	39	2	3831024	12	47	30	3	3051024	12	48	27	1	4171024	13	1	46	3	13891024	13	2	8	3	8161024	13	3	43	2	5011024	13	4	42	1	41951024	13	5	19	2	10171024	13	6	24	3	8611024	13	7	2	2	5811024	13	8	38	3	12171024	13	9	41	3	13361024	13	10	10	2	3471024	13	11	34	3	19321024	13	12	37	3	8571024	13	13	33	3	6671024	13	14	25	2	7431024	13	15	20	3	10171024	13	16	40	2	3431024	13	17	1	2	871024	13	18	44	2	7451024	13	19	14	2	6991024	13	20	3	1	14161024	13	21	39	2	1061024	13	22	30	3	3391024	13	23	47	1	4701024	13	24	6	3	3371024	13	25	4	3	4271024	13	26	48	3	4241024	13	27	12	3	4201024	13	28	35	1	9041024	13	29	13	3	4281024	13	30	18	1	18111024	13	31	27	1	7081024	13	32	5	1	4611024	13	33	15	3	7381024	13	34	29	3	5461024	13	35	36	1	20111024	13	36	17	1	46721024	13	37	22	1	30071024	13	38	26	2	5451024	13	39	45	1	10371024	13	40	23	3	15721024	13	41	32	1	6241024	13	42	28	3	2621024	13	43	21	1	4611024	13	44	31	2	3021024	13	45	7	2	3481024	13	46	16	1	8251024	13	47	11	3	5391024	13	48	9	1	29281024	14	1	22	3	13181024	14	2	48	2	10161024	14	3	42	3	5421024	14	4	16	3	9781024	14	5	30	3	8151024	14	6	1	3	4241024	14	7	29	2	4191024	14	8	23	1	4681024	14	9	8	1	3501024	14	10	2	1	4101024	14	11	32	2	15821024	14	12	17	1	3061024	14	13	25	3	2991024	14	14	14	2	5481024	14	15	39	1	6251024	14	16	5	2	3821024	14	17	18	3	691024	14	18	4	1	5091024	14	19	47	2	4921024	14	20	12	1	4701024	14	21	45	3	2621024	14	22	33	1	4881024	14	23	46	1	3071024	14	24	6	2	4611024	14	25	19	1	8581024	14	26	27	2	19271024	14	27	26	2	14211024	14	28	11	2	2281024	14	29	44	2	3061024	14	30	34	1	3411024	14	31	3	1	4611024	14	32	21	3	12941024	14	33	37	2	5111024	14	34	40	3	6221024	14	35	24	2	3931024	14	36	28	1	2631024	14	37	38	2	3811024	14	38	36	2	3831024	14	39	41	1	2581024	14	40	15	3	4241024	14	41	35	2	2611024	14	42	7	1	2241024	14	43	20	1	5001024	14	44	9	3	1881024	14	45	31	3	5401024	14	46	10	1	2711024	14	47	43	2	1431024	14	48	13	3	1061024	15	1	23	1	38721024	15	2	19	2	27541024	15	3	10	1	25101024	15	4	35	1	40041024	15	5	41	1	11491024	15	6	38	2	38681024	15	7	34	2	18501024	15	8	42	3	7691024	15	9	48	2	20081024	15	10	3	3	9641024	15	11	32	2	14571024	15	12	43	3	12541024	15	13	27	3	6561024	15	14	22	3	8141024	15	15	6	2	9681024	15	16	47	2	15701024	15	17	5	2	9311024	15	18	33	1	7271024	15	19	1	3	4981024	15	20	24	1	41241024	15	21	4	3	17701024	15	22	45	3	13281024	15	23	18	3	11361024	15	24	40	3	13191024	15	25	8	1	3671024	15	26	31	1	32071024	15	27	44	1	3331024	15	28	37	2	1701024	15	29	39	1	16191024	15	30	11	2	4141024	15	31	36	3	11671024	15	32	26	1	4901024	15	33	28	1	15331024	15	34	13	2	5301024	15	35	25	3	20851024	15	36	2	1	10741024	15	37	15	1	1721024	15	38	46	1	161024	15	39	21	1	4921024	15	40	9	3	6171024	15	41	16	3	24091024	15	42	7	3	3751024	15	43	17	1	2661024	15	44	12	2	7741024	15	45	20	3	8971024	15	46	29	2	8081024	15	47	30	2	21741024	15	48	14	2	2171024	16	1	45	3	31411024	16	2	28	3	19321024	16	3	44	2	6891024	16	4	31	3	6521024	16	5	46	3	4521024	16	6	12	3	6121024	16	7	29	3	4471024	16	8	1	2	4071024	16	9	26	3	4001024	16	10	14	3	15641024	16	11	10	3	4171024	16	12	9	1	7721024	16	13	2	2	6141024	16	14	27	1	15661024	16	15	43	2	5281024	16	16	23	2	14141024	16	17	38	2	12081024	16	18	8	3	12921024	16	19	6	3	5351024	16	20	4	3	5321024	16	21	39	1	10081024	16	22	7	1	5751024	16	23	17	1	9371024	16	24	25	1	9721024	16	25	21	2	6131024	16	26	15	3	4471024	16	27	3	1	4091024	16	28	18	3	6151024	16	29	36	2	4101024	16	30	22	1	6961024	16	31	48	2	6871024	16	32	20	1	7321024	16	33	24	1	6091024	16	34	11	3	3751024	16	35	42	1	9751024	16	36	19	1	3381024	16	37	5	1	29381024	16	38	35	2	8531024	16	39	37	2	5311024	16	40	32	3	6081024	16	41	30	3	4561024	16	42	41	1	7351024	16	43	33	1	6901024	16	44	47	1	3771024	16	45	13	3	4861024	16	46	34	1	5701024	16	47	16	1	5331024	16	48	40	1	7291024	17	1	11	2	4431024	17	2	22	2	7371024	17	3	14	2	11401024	17	4	21	1	2181024	17	5	15	2	2561024	17	6	31	2	181024	17	7	18	3	10601024	17	8	2	1	27361024	17	9	44	2	19281024	17	10	9	3	561024	17	11	20	2	7781024	17	12	13	3	18881024	17	13	10	3	18081024	17	14	38	3	7881024	17	15	39	2	1401024	17	16	17	3	5391024	17	17	32	2	11771024	17	18	42	2	25631024	17	19	28	2	11361024	17	20	30	1	1351024	17	21	3	1	20101024	17	22	29	3	23911024	17	23	8	1	12711024	17	24	24	3	20841024	17	25	19	2	11671024	17	26	7	1	11291024	17	27	40	3	13061024	17	28	47	1	18101024	17	29	27	3	27691024	17	30	1	2	10091024	17	31	43	2	8961024	17	32	36	1	11041024	17	33	5	1	4021024	17	34	12	1	8321024	17	35	35	3	9751024	17	36	16	3	10561024	17	37	6	3	5361024	17	38	48	3	8941024	17	39	37	1	21491024	17	40	25	3	10531024	17	41	46	3	6941024	17	42	41	1	10081024	17	43	45	1	6531024	17	44	33	1	7741024	17	45	26	3	21331024	17	46	34	3	16481024	17	47	23	1	28861024	17	48	4	3	501024	18	1	28	2	5691024	18	2	24	3	6521024	18	3	2	2	6541024	18	4	19	2	2151024	18	5	27	2	15921024	18	6	34	3	9091024	18	7	3	1	5691024	18	8	5	1	6151024	18	9	46	3	4101024	18	10	41	1	8581024	18	11	40	2	11381024	18	12	32	2	11761024	18	13	23	1	25241024	18	14	31	2	38121024	18	15	21	3	19301024	18	16	1	2	11681024	18	17	4	3	5951024	18	18	43	2	16551024	18	19	14	3	42891024	18	20	45	1	10101024	18	21	11	1	12181024	18	22	36	3	4551024	18	23	39	1	7351024	18	24	38	2	9741024	18	25	44	2	6961024	18	26	10	2	3301024	18	27	26	3	5701024	18	28	18	2	7731024	18	29	20	3	4971024	18	30	29	3	21531024	18	31	13	1	19481024	18	32	8	3	4831024	18	33	6	3	4101024	18	34	48	2	11371024	18	35	7	3	8551024	18	36	47	2	4961024	18	37	37	2	4501024	18	38	22	3	4121024	18	39	17	1	6091024	18	40	35	1	16211024	18	41	15	3	4591024	18	42	25	1	13671024	18	43	16	1	11281024	18	44	9	3	3661024	18	45	33	1	18091024	18	46	42	3	8961024	18	47	30	3	7291024	18	48	12	3	10861024	19	1	32	2	49201024	19	2	6	3	21951024	19	3	30	3	10501024	19	4	42	1	8621024	19	5	25	1	6661024	19	6	4	3	2391024	19	7	2	3	8631024	19	8	12	1	9741024	19	9	15	2	16671024	19	10	11	3	8331024	19	11	22	3	14991024	19	12	19	2	7111024	19	13	1	2	6951024	19	14	33	1	9491024	19	15	10	3	17651024	19	16	31	2	6161024	19	17	7	3	5821024	19	18	21	1	5231024	19	19	27	3	5491024	19	20	43	3	5811024	19	21	39	2	15471024	19	22	13	1	7541024	19	23	40	2	5541024	19	24	23	1	1701024	19	25	26	3	5241024	19	26	37	1	7741024	19	27	5	3	13341024	19	28	35	2	5941024	19	29	34	1	5711024	19	30	45	1	17091024	19	31	18	2	5651024	19	32	14	3	11601024	19	33	48	3	8031024	19	34	24	3	7901024	19	35	29	3	8211024	19	36	38	3	9061024	19	37	9	2	5751024	19	38	17	2	6461024	19	39	16	1	4711024	19	40	41	3	28711024	19	41	36	2	4391024	19	42	20	2	9121024	19	43	47	2	7111024	19	44	3	3	6151024	19	45	46	1	4701024	19	46	28	1	6941024	19	47	44	1	7221024	19	48	8	2	5171024	2	1	39	1	12601024	2	2	26	3	26441024	2	3	7	2	7871024	2	4	19	2	10271024	2	5	23	1	14161024	2	6	9	3	24881024	2	7	44	1	6901024	2	8	14	2	6681024	2	9	35	1	16201024	2	10	41	1	13421024	2	11	30	2	5801024	2	12	38	2	8611024	2	13	15	1	5431024	2	14	27	3	3711024	2	15	29	2	1091024	2	16	28	1	4651024	2	17	20	2	3871024	2	18	18	3	4201024	2	19	24	3	3511024	2	20	3	3	1521024	2	21	48	2	6601024	2	22	13	2	4631024	2	23	22	3	6661024	2	24	36	3	5471024	2	25	6	2	6271024	2	26	31	2	7421024	2	27	5	2	5011024	2	28	1	3	3891024	2	29	43	3	4101024	2	30	11	2	4711024	2	31	46	1	9781024	2	32	16	2	18121024	2	33	32	2	6171024	2	34	40	3	10631024	2	35	4	1	9001024	2	36	33	1	24521024	2	37	45	3	7821024	2	38	8	1	5871024	2	39	34	3	5891024	2	40	25	3	5021024	2	41	42	3	7861024	2	42	37	2	4321024	2	43	47	2	3901024	2	44	2	1	6621024	2	45	12	2	5031024	2	46	17	1	5891024	2	47	21	2	6221024	2	48	10	1	3631024	20	1	44	3	46791024	20	2	14	3	7191024	20	3	5	1	6391024	20	4	19	2	4961024	20	5	31	2	5021024	20	6	47	1	571024	20	7	46	3	3751024	20	8	12	3	3901024	20	9	23	1	16051024	20	10	38	1	6481024	20	11	28	3	5221024	20	12	11	3	3721024	20	13	10	3	3981024	20	14	4	3	3511024	20	15	26	2	3281024	20	16	48	3	4751024	20	17	29	1	5871024	20	18	18	2	821024	20	19	33	3	14451024	20	20	16	1	6791024	20	21	39	3	5431024	20	22	36	2	4611024	20	23	15	3	6491024	20	24	35	2	2211024	20	25	37	3	3621024	20	26	42	2	7091024	20	27	24	2	6141024	20	28	25	2	11861024	20	29	32	1	4941024	20	30	17	2	4681024	20	31	20	1	4531024	20	32	45	1	6071024	20	33	22	1	5861024	20	34	13	3	4481024	20	35	43	2	2971024	20	36	40	1	4391024	20	37	2	3	5591024	20	38	34	1	4351024	20	39	27	1	12411024	20	40	41	2	7261024	20	41	6	3	31271024	20	42	7	2	13221024	20	43	3	1	10111024	20	44	9	1	5101024	20	45	8	2	9671024	20	46	30	3	20261024	20	47	1	1	5091024	20	48	21	1	6791024	21	1	5	1	13781024	21	2	36	2	30861024	21	3	24	3	10201024	21	4	7	2	16251024	21	5	10	1	8151024	21	6	46	3	12061024	21	7	43	2	8091024	21	8	44	2	6201024	21	9	32	2	11771024	21	10	19	2	5661024	21	11	1	2	3291024	21	12	41	3	12911024	21	13	39	3	5261024	21	14	37	3	8571024	21	15	22	3	4051024	21	16	33	3	3921024	21	17	29	3	9531024	21	18	27	2	16081024	21	19	40	1	5381024	21	20	3	3	11131024	21	21	38	3	14971024	21	22	21	3	7581024	21	23	14	1	10061024	21	24	25	1	15611024	21	25	26	3	19861024	21	26	8	3	8191024	21	27	15	2	10331024	21	28	23	1	10641024	21	29	12	2	7811024	21	30	45	1	7161024	21	31	2	2	15471024	21	32	13	3	3071024	21	33	31	2	4821024	21	34	20	2	3261024	21	35	4	3	5691024	21	36	30	3	3471024	21	37	34	3	6751024	21	38	9	1	7951024	21	39	6	3	8911024	21	40	11	1	7971024	21	41	18	2	2351024	21	42	42	2	7981024	21	43	48	2	9751024	21	44	47	1	5951024	21	45	35	2	5861024	21	46	17	1	11391024	21	47	28	3	7611024	21	48	16	2	16511024	22	1	43	2	35011024	22	2	12	1	13691024	22	3	45	1	15641024	22	4	40	1	8871024	22	5	26	3	11451024	22	6	5	1	5271024	22	7	34	1	5691024	22	8	13	1	10841024	22	9	22	1	4871024	22	10	2	2	12251024	22	11	15	3	6701024	22	12	18	2	7281024	22	13	28	3	9201024	22	14	31	3	5471024	22	15	36	2	4671024	22	16	32	1	5001024	22	17	47	1	3761024	22	18	1	3	9031024	22	19	7	1	16121024	22	20	39	3	8151024	22	21	38	1	5641024	22	22	4	3	5191024	22	23	16	1	5591024	22	24	9	1	6251024	22	25	35	2	9871024	22	26	20	1	5961024	22	27	17	2	3801024	22	28	14	1	5211024	22	29	29	3	7081024	22	30	30	3	7881024	22	31	46	3	4201024	22	32	41	1	561024	22	33	21	3	6941024	22	34	3	1	4991024	22	35	44	2	3931024	22	36	42	2	6001024	22	37	6	3	3711024	22	38	8	2	10551024	22	39	23	2	10591024	22	40	24	2	5521024	22	41	33	3	4561024	22	42	10	3	7751024	22	43	25	2	5001024	22	44	27	1	5201024	22	45	19	3	5161024	22	46	48	3	5391024	22	47	37	3	4561024	22	48	11	3	4871024	23	1	3	1	7541024	23	2	27	1	10971024	23	3	21	1	6801024	23	4	29	2	11361024	23	5	13	1	9001024	23	6	10	3	14501024	23	7	47	1	8131024	23	8	5	3	15031024	23	9	42	1	7951024	23	10	18	1	6031024	23	11	6	3	12691024	23	12	31	2	5351024	23	13	23	1	5161024	23	14	39	2	6361024	23	15	25	1	6211024	23	16	32	2	6331024	23	17	38	3	5211024	23	18	40	2	4841024	23	19	8	3	9511024	23	20	28	2	6951024	23	21	46	3	7241024	23	22	36	3	10961024	23	23	7	3	10131024	23	24	15	1	6571024	23	25	4	3	5351024	23	26	45	1	8201024	23	27	9	2	5381024	23	28	24	3	4051024	23	29	16	2	6811024	23	30	2	2	9791024	23	31	22	3	5531024	23	32	17	2	14171024	23	33	30	1	8071024	23	34	48	3	4901024	23	35	43	2	5401024	23	36	26	3	5541024	23	37	11	1	5061024	23	38	1	2	8951024	23	39	44	2	6601024	23	40	12	1	6181024	23	41	35	2	5501024	23	42	41	1	4711024	23	43	34	1	7281024	23	44	14	2	5061024	23	45	19	2	5271024	23	46	20	2	5701024	23	47	37	1	4291024	23	48	33	3	6271024	24	1	9	2	13451024	24	2	28	3	5581024	24	3	20	2	6381024	24	4	34	1	4451024	24	5	23	1	5041024	24	6	11	3	3491024	24	7	18	2	3741024	24	8	48	3	3091024	24	9	8	1	5491024	24	10	13	3	3741024	24	11	16	1	4201024	24	12	38	3	4561024	24	13	30	3	4371024	24	14	27	1	4271024	24	15	33	3	3731024	24	16	40	2	6121024	24	17	25	2	4461024	24	18	12	3	3601024	24	19	2	2	4351024	24	20	37	2	6361024	24	21	10	3	5721024	24	22	1	2	4301024	24	23	21	3	11891024	24	24	3	1	4521024	24	25	6	3	4331024	24	26	41	3	8721024	24	27	32	1	6161024	24	28	22	1	3741024	24	29	39	3	4021024	24	30	24	1	3581024	24	31	31	3	3481024	24	32	42	3	4221024	24	33	14	1	3801024	24	34	35	2	3451024	24	35	19	2	3021024	24	36	26	2	2191024	24	37	5	1	2001024	24	38	15	3	3231024	24	39	17	2	2301024	24	40	4	3	2141024	24	41	7	2	2281024	24	42	45	1	2281024	24	43	43	2	2411024	24	44	29	3	2941024	24	45	46	3	2921024	24	46	47	1	2851024	24	47	44	2	2811024	24	48	36	2	3561024	25	1	32	2	33771024	25	2	2	2	14771024	25	3	39	3	14541024	25	4	10	2	9641024	25	5	36	2	10611024	25	6	34	1	5391024	25	7	16	1	6321024	25	8	18	2	8561024	25	9	3	1	6301024	25	10	22	1	4211024	25	11	12	3	45241024	25	12	35	2	4211024	25	13	29	3	12271024	25	14	25	1	30761024	25	15	28	2	20601024	25	16	1	2	5371024	25	17	13	3	5661024	25	18	30	1	22331024	25	19	37	3	5861024	25	20	23	2	8291024	25	21	47	1	4221024	25	22	21	3	3641024	25	23	31	3	2141024	25	24	24	2	3881024	25	25	41	2	2441024	25	26	11	1	8861024	25	27	15	3	561024	25	28	33	3	701024	25	29	44	2	5321024	25	30	20	1	4971024	25	31	42	2	7091024	25	32	9	2	2781024	25	33	48	3	9261024	25	34	26	2	9841024	25	35	17	2	5571024	25	36	38	1	5911024	25	37	45	1	8541024	25	38	6	3	11881024	25	39	5	1	3881024	25	40	7	2	2921024	25	41	19	3	1891024	25	42	43	2	3741024	25	43	4	3	3071024	25	44	46	3	5161024	25	45	14	1	2681024	25	46	27	2	4531024	25	47	8	3	4621024	25	48	40	1	5871024	26	1	37	1	18491024	26	2	28	2	11321024	26	3	30	2	8931024	26	4	11	2	9641024	26	5	13	1	5501024	26	6	47	2	4541024	26	7	5	2	3871024	26	8	20	2	5631024	26	9	21	1	3091024	26	10	42	1	11731024	26	11	35	1	5311024	26	12	46	2	6851024	26	13	43	3	5041024	26	14	8	1	5091024	26	15	6	2	4861024	26	16	4	1	4871024	26	17	9	3	4111024	26	18	23	3	5421024	26	19	7	3	3631024	26	20	34	3	3741024	26	21	24	3	3721024	26	22	10	1	5251024	26	23	14	3	11921024	26	24	44	1	5051024	26	25	12	2	3491024	26	26	26	1	6611024	26	27	48	2	3641024	26	28	15	1	11731024	26	29	29	1	11241024	26	30	22	3	6771024	26	31	31	2	2221024	26	32	25	1	6841024	26	33	33	1	2291024	26	34	41	3	3571024	26	35	2	3	12451024	26	36	38	3	4571024	26	37	16	2	3891024	26	38	32	2	4701024	26	39	45	3	2931024	26	40	40	2	6761024	26	41	1	3	5721024	26	42	27	3	3501024	26	43	18	1	5181024	26	44	39	2	5091024	26	45	19	2	2461024	26	46	17	3	3921024	26	47	3	2	10811024	26	48	36	3	5801024	3	1	48	3	10181024	3	2	6	3	13821024	3	3	7	2	6651024	3	4	17	3	6261024	3	5	8	3	9011024	3	6	26	2	6681024	3	7	47	1	6301024	3	8	19	2	13031024	3	9	44	2	6661024	3	10	25	1	13431024	3	11	22	1	6621024	3	12	9	2	4651024	3	13	35	3	9851024	3	14	10	3	8661024	3	15	23	1	10651024	3	16	2	2	3471024	3	17	1	2	2691024	3	18	13	3	4331024	3	19	5	1	3531024	3	20	28	3	2221024	3	21	41	1	5921024	3	22	33	3	8831024	3	23	46	3	4091024	3	24	11	3	14781024	3	25	31	3	8651024	3	26	27	2	7461024	3	27	14	1	6251024	3	28	36	3	6611024	3	29	20	3	7411024	3	30	24	3	5421024	3	31	16	1	8591024	3	32	38	2	5821024	3	33	3	1	6261024	3	34	40	1	13361024	3	35	34	2	13811024	3	36	18	2	5461024	3	37	29	3	10221024	3	38	30	1	7491024	3	39	12	3	13031024	3	40	45	1	2731024	3	41	39	3	5261024	3	42	43	3	5931024	3	43	37	1	5861024	3	44	42	3	15831024	3	45	21	1	4661024	3	46	4	3	6681024	3	47	15	1	5121024	3	48	32	2	2591024	30	1	48	3	8251024	30	2	33	1	4591024	30	3	14	2	9691024	30	4	30	1	8841024	30	5	4	3	4421024	30	6	6	3	5831024	30	7	9	2	9621024	30	8	5	1	5431024	30	9	10	3	4491024	30	10	40	1	3511024	30	11	43	2	3921024	30	12	42	2	5411024	30	13	36	3	4221024	30	14	24	1	5961024	30	15	32	1	2651024	30	16	44	2	2751024	30	17	12	3	2221024	30	18	16	1	2571024	30	19	29	1	2481024	30	20	18	2	5231024	30	21	19	3	5621024	30	22	7	2	2721024	30	23	15	3	4351024	30	24	17	2	3991024	30	25	8	2	5411024	30	26	22	1	6401024	30	27	21	3	4181024	30	28	20	1	3371024	30	29	26	2	1891024	30	30	34	1	3741024	30	31	39	3	3111024	30	32	28	3	2111024	30	33	3	2	3121024	30	34	13	3	3271024	30	35	31	3	4051024	30	36	38	1	3521024	30	37	1	2	3291024	30	38	25	2	3331024	30	39	35	2	5031024	30	40	41	2	6451024	30	41	46	3	3921024	30	42	45	1	4521024	30	43	47	1	3681024	30	44	2	3	11321024	30	45	11	1	2511024	30	46	23	2	2181024	30	47	27	1	4321024	30	48	37	3	3211024	31	1	28	2	13441024	31	2	2	2	4671024	31	3	36	2	8121024	31	4	43	2	2211024	31	5	33	3	3021024	31	6	35	2	7821024	31	7	31	2	6351024	31	8	16	1	3651024	31	9	23	2	5761024	31	10	21	2	4921024	31	11	20	2	4801024	31	12	46	1	5291024	31	13	29	3	4811024	31	14	9	1	5771024	31	15	25	2	2871024	31	16	32	1	3241024	31	17	14	1	2101024	31	18	47	1	4331024	31	19	13	3	3031024	31	20	3	1	3941024	31	21	4	2	3751024	31	22	48	3	3741024	31	23	7	1	3471024	31	24	11	3	4331024	31	25	27	2	3111024	31	26	44	2	3111024	31	27	40	1	3251024	31	28	22	3	3061024	31	29	8	3	3681024	31	30	1	2	1721024	31	31	17	3	3131024	31	32	24	3	4261024	31	33	39	3	6301024	31	34	30	3	3721024	31	35	38	1	2961024	31	36	41	2	2281024	31	37	12	3	2461024	31	38	26	2	3751024	31	39	19	3	3771024	31	40	42	3	6821024	31	41	10	3	1931024	31	42	18	2	5011024	31	43	37	3	5541024	31	44	34	1	3291024	31	45	5	1	3581024	31	46	6	3	2861024	31	47	45	1	2881024	31	48	15	3	3761024	32	1	18	3	7301024	32	2	8	2	10861024	32	3	32	2	3071024	32	4	6	1	5331024	32	5	9	1	2891024	32	6	7	2	2571024	32	7	22	3	1011024	32	8	25	2	4931024	32	9	36	3	3041024	32	10	11	1	2601024	32	11	5	1	3651024	32	12	31	3	3101024	32	13	41	2	2951024	32	14	2	2	5301024	32	15	15	1	6461024	32	16	34	1	2721024	32	17	3	1	3791024	32	18	30	3	2251024	32	19	45	2	2241024	32	20	39	3	6931024	32	21	1	2	2381024	32	22	4	3	831024	32	23	42	2	4451024	32	24	17	2	3391024	32	25	38	2	3491024	32	26	23	3	4571024	32	27	35	2	2881024	32	28	10	2	2021024	32	29	47	1	2871024	32	30	28	2	2251024	32	31	20	3	2231024	32	32	24	2	3091024	32	33	29	3	7541024	32	34	14	1	2441024	32	35	19	2	2051024	32	36	27	2	581024	32	37	40	2	2411024	32	38	26	2	2441024	32	39	12	3	2341024	32	40	46	3	2471024	32	41	44	1	4541024	32	42	33	2	2001024	32	43	13	3	1911024	32	44	37	3	521024	32	45	43	2	2851024	32	46	21	1	1891024	32	47	48	3	2441024	32	48	16	2	861024	34	1	23	1	24281024	34	2	34	1	12531024	34	3	13	1	16511024	34	4	20	2	10811024	34	5	24	1	9261024	34	6	46	3	11441024	34	7	15	2	14671024	34	8	22	1	7411024	34	9	11	1	8051024	34	10	4	3	9301024	34	11	48	3	8261024	34	12	38	1	8411024	34	13	3	1	7861024	34	14	2	2	11351024	34	15	1	2	8501024	34	16	40	1	7041024	34	17	31	2	8381024	34	18	44	2	5501024	34	19	45	2	12491024	34	20	35	2	5341024	34	21	7	1	2431024	34	22	9	2	7461024	34	23	47	1	4711024	34	24	41	1	11361024	34	25	33	3	9551024	34	26	29	1	6861024	34	27	39	1	3961024	34	28	18	2	8941024	34	29	21	1	13681024	34	30	25	2	4881024	34	31	6	3	6391024	34	32	16	1	4001024	34	33	19	2	6061024	34	34	37	1	7841024	34	35	30	2	11111024	34	36	17	2	3271024	34	37	12	2	4141024	34	38	5	1	5661024	34	39	32	1	5331024	34	40	36	2	6821024	34	41	8	2	5941024	34	42	27	1	4581024	34	43	28	3	5351024	34	44	26	2	5031024	34	45	43	2	2831024	34	46	10	3	1891024	34	47	42	3	14081024	34	48	14	1	10871024	4	1	19	2	33511024	4	2	4	3	25351024	4	3	40	3	21351024	4	4	31	3	13401024	4	5	3	1	22991024	4	6	30	3	19341024	4	7	48	2	11431024	4	8	10	1	7831024	4	9	20	2	8261024	4	10	2	1	8611024	4	11	9	3	31871024	4	12	6	3	4701024	4	13	45	1	7421024	4	14	7	3	2251024	4	15	36	3	5471024	4	16	27	1	16591024	4	17	22	3	7001024	4	18	39	3	23761024	4	19	1	2	3921024	4	20	34	1	5471024	4	21	29	2	6281024	4	22	26	3	21341024	4	23	47	2	5061024	4	24	12	2	7401024	4	25	17	2	3831024	4	26	43	2	6601024	4	27	5	2	6621024	4	28	38	2	14201024	4	29	28	1	4711024	4	30	25	3	5821024	4	31	44	2	17791024	4	32	15	2	20121024	4	33	41	1	7911024	4	34	14	2	11401024	4	35	32	2	12961024	4	36	46	1	5261024	4	37	35	2	7081024	4	38	8	1	4251024	4	39	37	3	6251024	4	40	23	1	6611024	4	41	13	2	4261024	4	42	24	3	4291024	4	43	18	2	5441024	4	44	21	3	15391024	4	45	11	2	3921024	4	46	16	3	3871024	4	47	42	3	6731024	4	48	33	3	3451024	5	1	10	3	13051024	5	2	44	2	10721024	5	3	34	1	6651024	5	4	35	2	5491024	5	5	17	1	8301024	5	6	47	1	4501024	5	7	15	3	2521024	5	8	37	3	5731024	5	9	26	2	2761024	5	10	46	3	3111024	5	11	16	1	4171024	5	12	4	3	3891024	5	13	13	3	4271024	5	14	7	2	6671024	5	15	6	3	3531024	5	16	36	2	3061024	5	17	48	3	2271024	5	18	20	3	7471024	5	19	3	1	3511024	5	20	38	1	3371024	5	21	9	2	2741024	5	22	5	1	2691024	5	23	23	1	7531024	5	24	27	3	7821024	5	25	12	2	5891024	5	26	32	2	11421024	5	27	33	3	2651024	5	28	19	3	7101024	5	29	8	1	6681024	5	30	22	3	8981024	5	31	14	1	3881024	5	32	39	3	3451024	5	33	21	3	2311024	5	34	24	2	2341024	5	35	25	2	2251024	5	36	11	1	5841024	5	37	29	3	4351024	5	38	45	1	1461024	5	39	42	3	4701024	5	40	1	2	4231024	5	41	30	3	2661024	5	42	41	2	3531024	5	43	31	3	281024	5	44	28	2	5511024	5	45	43	2	6241024	5	46	2	2	4241024	5	47	40	3	2271024	5	48	18	2	2581024	6	1	28	2	26541024	6	2	15	3	9391024	6	3	26	3	14641024	6	4	11	1	9681024	6	5	17	2	6211024	6	6	38	3	8261024	6	7	4	3	6631024	6	8	20	2	5831024	6	9	10	3	12611024	6	10	9	1	6601024	6	11	6	3	5401024	6	12	40	2	6301024	6	13	32	2	4671024	6	14	7	3	9051024	6	15	47	1	7581024	6	16	13	2	10601024	6	17	8	1	5801024	6	18	21	2	8611024	6	19	34	2	13351024	6	20	39	1	7451024	6	21	27	2	6231024	6	22	18	1	5091024	6	23	31	2	5821024	6	24	19	2	6661024	6	25	3	1	6481024	6	26	1	2	6421024	6	27	43	3	8231024	6	28	25	1	11751024	6	29	24	3	5081024	6	30	14	2	5831024	6	31	36	3	4671024	6	32	33	1	5081024	6	33	12	3	6601024	6	34	35	1	5011024	6	35	22	3	4671024	6	36	37	1	13831024	6	37	16	2	4251024	6	38	5	1	5411024	6	39	30	3	6601024	6	40	48	3	12801024	6	41	46	3	5141024	6	42	45	1	5061024	6	43	23	3	7001024	6	44	44	2	8611024	6	45	42	3	5331024	6	46	2	2	1461024	6	47	41	1	6261024	6	48	29	3	3831024	7	1	46	3	11781024	7	2	37	1	11151024	7	3	13	2	5731024	7	4	10	3	3911024	7	5	30	3	3471024	7	6	29	3	4681024	7	7	12	3	16641024	7	8	34	3	9821024	7	9	24	3	9441024	7	10	48	1	8231024	7	11	7	2	5411024	7	12	1	1	7001024	7	13	44	3	10071024	7	14	26	2	3511024	7	15	8	1	6311024	7	16	17	3	3901024	7	17	45	2	14991024	7	18	16	1	6241024	7	19	41	1	5031024	7	20	35	2	5901024	7	21	47	3	6221024	7	22	31	3	6621024	7	23	42	1	15781024	7	24	18	3	6601024	7	25	19	2	17751024	7	26	27	1	6701024	7	27	9	1	8591024	7	28	25	2	30831024	7	29	11	3	4741024	7	30	14	1	6631024	7	31	21	1	4291024	7	32	15	2	2981024	7	33	28	3	3661024	7	34	22	2	6461024	7	35	2	2	7531024	7	36	6	3	4221024	7	37	39	1	10671024	7	38	3	2	5911024	7	39	43	2	5061024	7	40	32	2	16531024	7	41	23	1	3891024	7	42	38	3	9391024	7	43	36	2	9491024	7	44	20	1	11461024	7	45	33	3	7841024	7	46	4	2	5501024	7	47	5	1	4771024	7	48	40	3	14561024	8	1	37	1	20581024	8	2	17	3	17071024	8	3	18	2	9771024	8	4	22	1	7011024	8	5	46	3	7081024	8	6	6	3	5071024	8	7	14	1	3441024	8	8	25	2	3071024	8	9	47	1	8631024	8	10	42	2	7651024	8	11	20	1	7451024	8	12	33	3	2671024	8	13	29	1	4321024	8	14	40	1	5511024	8	15	30	3	2741024	8	16	39	2	4281024	8	17	1	2	4301024	8	18	36	2	4281024	8	19	12	3	3101024	8	20	38	2	3091024	8	21	28	2	1091024	8	22	35	2	5901024	8	23	11	3	3081024	8	24	15	3	2111024	8	25	45	2	261024	8	26	5	1	7841024	8	27	16	1	5101024	8	28	41	1	9061024	8	29	44	2	3041024	8	30	34	1	2941024	8	31	19	3	4231024	8	32	10	2	3461024	8	33	2	2	2601024	8	34	48	3	1071024	8	35	3	1	4091024	8	36	7	2	2361024	8	37	9	2	1851024	8	38	26	3	5921024	8	39	24	3	3481024	8	40	27	2	2731024	8	41	23	1	5041024	8	42	4	3	3541024	8	43	31	3	2271024	8	44	43	2	1361024	8	45	13	3	3951024	8	46	21	3	5091024	8	47	32	1	6271024	8	48	8	1	5501024	9	1	40	2	10981024	9	2	16	2	6651024	9	3	21	1	14221024	9	4	15	2	14251024	9	5	47	2	1481024	9	6	1	3	9061024	9	7	35	1	9011024	9	8	11	2	321024	9	9	45	1	7891024	9	10	2	2	7031024	9	11	39	1	5111024	9	12	24	3	3901024	9	13	31	2	7411024	9	14	5	3	11381024	9	15	46	1	5531024	9	16	38	2	1851024	9	17	14	2	23411024	9	18	25	3	5131024	9	19	4	1	6291024	9	20	44	1	5081024	9	21	8	1	5451024	9	22	34	3	5061024	9	23	37	2	1461024	9	24	36	3	6941024	9	25	27	3	4221024	9	26	18	1	9391024	9	27	10	1	41024	9	28	41	1	41024	9	29	32	2	9091024	9	30	9	3	4151024	9	31	20	2	4321024	9	32	22	3	5491024	9	33	42	3	4721024	9	34	28	3	6241024	9	35	6	2	4251024	9	36	43	3	5841024	9	37	13	2	1521024	9	38	23	1	4641024	9	39	17	1	11421024	9	40	19	2	3451024	9	41	48	3	20161024	9	42	12	2	7481024	9	43	7	1	29711024	9	44	33	2	2921024	9	45	3	3	11481024	9	46	29	2	4291024	9	47	30	2	5891024	9	48	26	2	10992048	1	1	1	2	7062048	1	2	23	1	4672048	1	3	48	3	5552048	1	4	47	1	4712048	1	5	20	2	6662048	1	6	33	3	5942048	1	7	32	1	5592048	1	8	35	2	3932048	1	9	25	3	9902048	1	10	43	2	2702048	1	11	27	1	7072048	1	12	10	3	4112048	1	13	22	1	5472048	1	14	26	3	11102048	1	15	2	2	2422048	1	16	24	2	5442048	1	17	16	1	4172048	1	18	15	3	5692048	1	19	21	3	4982048	1	20	34	1	5122048	1	21	12	2	6342048	1	22	11	3	3202048	1	23	45	1	5092048	1	24	37	3	7322048	1	25	38	1	3912048	1	26	46	1	2722048	1	27	31	3	5482048	1	28	29	1	4782048	1	29	39	3	2762048	1	30	8	1	14262048	1	31	18	2	8272048	1	32	3	1	4312048	1	33	17	2	2772048	1	34	42	2	7142048	1	35	19	3	2782048	1	36	44	2	4752048	1	37	41	2	8212048	1	38	5	1	3502048	1	39	14	1	2782048	1	40	13	3	3792048	1	41	9	1	7492048	1	42	36	3	10302048	1	43	28	3	7932048	1	44	30	3	8292048	1	45	6	3	3532048	1	46	4	3	3912048	1	47	7	2	3932048	1	48	40	3	5512048	10	1	25	2	6712048	10	2	17	1	5502048	10	3	10	3	5192048	10	4	26	2	4702048	10	5	36	3	5202048	10	6	39	2	6712048	10	7	46	3	5492048	10	8	20	3	3992048	10	9	9	1	3612048	10	10	19	2	5182048	10	11	48	3	5102048	10	12	3	1	3962048	10	13	33	1	4352048	10	14	47	1	8472048	10	15	27	2	4712048	10	16	13	3	3142048	10	17	23	2	3282048	10	18	43	2	2712048	10	19	42	2	3092048	10	20	32	1	3172048	10	21	7	2	2312048	10	22	37	3	3192048	10	23	2	2	2332048	10	24	8	2	4002048	10	25	15	3	2722048	10	26	29	3	3522048	10	27	5	1	3212048	10	28	4	3	3542048	10	29	31	3	2732048	10	30	6	3	3402048	10	31	18	2	2422048	10	32	30	3	2402048	10	33	44	2	2752048	10	34	21	3	3552048	10	35	35	2	2342048	10	36	22	1	3242048	10	37	16	1	72048	10	38	12	3	732048	10	39	11	3	2752048	10	40	1	2	1952048	10	41	34	1	5112048	10	42	14	1	2732048	10	43	38	1	1942048	10	44	28	3	2662048	10	45	41	2	2372048	10	46	45	3	5902048	10	47	40	1	3012048	10	48	24	2	2322048	11	1	41	3	239032048	11	2	6	3	19902048	11	3	46	3	18642048	11	4	37	2	11532048	11	5	4	3	9062048	11	6	21	1	12652048	11	7	38	1	10332048	11	8	3	1	8412048	11	9	45	1	4362048	11	10	5	1	8682048	11	11	20	1	19502048	11	12	23	2	8372048	11	13	42	2	8212048	11	14	43	2	9492048	11	15	29	1	9162048	11	16	11	1	11772048	11	17	15	3	11082048	11	18	13	3	7502048	11	19	9	1	10772048	11	20	39	3	7562048	11	21	35	2	11382048	11	22	34	1	11862048	11	23	27	2	34582048	11	24	33	3	11832048	11	25	32	1	14742048	11	26	22	1	9112048	11	27	44	2	7532048	11	28	17	2	4322048	11	29	48	3	6792048	11	30	16	1	37762048	11	31	24	2	7192048	11	32	25	2	11092048	11	33	47	1	13082048	11	34	36	2	3132048	11	35	2	2	11162048	11	36	1	2	11192048	11	37	40	1	8512048	11	38	7	2	7832048	11	39	26	2	7162048	11	40	12	3	8802048	11	41	19	3	7982048	11	42	30	3	8782048	11	43	31	3	3602048	11	44	18	2	3602048	11	45	28	3	5062048	11	46	14	1	6732048	11	47	8	2	5142048	11	48	10	3	6862048	12	1	1	2	14662048	12	2	12	1	9542048	12	3	4	3	4332048	12	4	46	3	5662048	12	5	38	1	5112048	12	6	30	3	4382048	12	7	29	1	4732048	12	8	28	3	5162048	12	9	13	3	8802048	12	10	14	1	4812048	12	11	23	1	8812048	12	12	45	1	3622048	12	13	25	2	12762048	12	14	34	1	3592048	12	15	37	3	6382048	12	16	39	2	5532048	12	17	24	2	3152048	12	18	17	2	3232048	12	19	36	2	2802048	12	20	2	2	3232048	12	21	9	1	5172048	12	22	31	3	3762048	12	23	33	3	2832048	12	24	44	1	6632048	12	25	5	1	3582048	12	26	41	1	5942048	12	27	32	1	7182048	12	28	20	1	2332048	12	29	35	2	3552048	12	30	10	2	4752048	12	31	47	1	2682048	12	32	27	2	5632048	12	33	42	1	3122048	12	34	6	3	3602048	12	35	11	2	5602048	12	36	21	1	6782048	12	37	8	3	5192048	12	38	18	2	3952048	12	39	3	1	3602048	12	40	16	1	4802048	12	41	19	3	5882048	12	42	48	3	2722048	12	43	43	2	5542048	12	44	15	3	3152048	12	45	7	1	3242048	12	46	26	2	3592048	12	47	22	3	5992048	12	48	40	2	4832048	13	1	11	2	28212048	13	2	46	1	12052048	13	3	23	2	11622048	13	4	16	3	5592048	13	5	41	2	6322048	13	6	27	3	22382048	13	7	18	2	6282048	13	8	36	2	9472048	13	9	6	2	6322048	13	10	45	1	4772048	13	11	43	2	5522048	13	12	8	2	9742048	13	13	25	1	3182048	13	14	39	1	5882048	13	15	33	2	7832048	13	16	13	3	3562048	13	17	19	2	5502048	13	18	14	1	3822048	13	19	26	2	6312048	13	20	47	1	3952048	13	21	20	2	5932048	13	22	1	2	3842048	13	23	37	2	3172048	13	24	38	1	3872048	13	25	15	1	5472048	13	26	30	2	5132048	13	27	3	1	5542048	13	28	31	2	3892048	13	29	7	3	11652048	13	30	4	3	3492048	13	31	5	1	5152048	13	32	28	2	3582048	13	33	32	1	3542048	13	34	35	2	8292048	13	35	2	1	5922048	13	36	17	2	3132048	13	37	24	3	2872048	13	38	48	3	3582048	13	39	40	2	6512048	13	40	22	3	5312048	13	41	10	2	4612048	13	42	42	2	1872048	13	43	29	1	5822048	13	44	21	3	5532048	13	45	9	1	18962048	13	46	12	2	2302048	13	47	44	2	2782048	13	48	34	3	5152048	14	1	47	2	19882048	14	2	44	1	9252048	14	3	28	1	8892048	14	4	38	2	9052048	14	5	30	3	10512048	14	6	42	1	82048	14	7	35	1	10842048	14	8	18	2	15682048	14	9	19	1	10232048	14	10	21	1	8652048	14	11	45	3	35762048	14	12	16	3	13322048	14	13	34	3	16032048	14	14	6	3	16872048	14	15	37	1	14142048	14	16	13	2	18542048	14	17	31	3	8862048	14	18	12	2	11772048	14	19	2	2	10572048	14	20	32	2	9402048	14	21	24	2	13752048	14	22	4	3	5842048	14	23	43	2	10632048	14	24	40	1	9072048	14	25	33	3	6212048	14	26	5	1	11012048	14	27	27	2	13752048	14	28	11	2	11342048	14	29	1	3	5842048	14	30	15	1	9072048	14	31	29	2	8002048	14	32	9	3	7302048	14	33	23	1	10642048	14	34	3	3	8682048	14	35	17	2	9692048	14	36	36	2	4922048	14	37	41	2	4022048	14	38	22	1	732048	14	39	7	3	7452048	14	40	25	3	5792048	14	41	20	1	67282048	14	42	46	1	8372048	14	43	48	2	9072048	14	44	39	3	8982048	14	45	10	1	9792048	14	46	26	1	5872048	14	47	14	1	7392048	14	48	8	1	8232048	15	1	18	2	11872048	15	2	2	3	22242048	15	3	9	3	6572048	15	4	1	3	9472048	15	5	13	2	6242048	15	6	38	2	10452048	15	7	7	3	3862048	15	8	24	3	12252048	15	9	4	1	4192048	15	10	26	1	3762048	15	11	46	1	5352048	15	12	39	1	3852048	15	13	47	2	3462048	15	14	5	2	3422048	15	15	30	2	3802048	15	16	34	3	2632048	15	17	8	1	4222048	15	18	22	3	2682048	15	19	40	3	4912048	15	20	42	3	4702048	15	21	25	3	4192048	15	22	6	2	3052048	15	23	43	3	3382048	15	24	37	2	3072048	15	25	44	1	3412048	15	26	45	3	2972048	15	27	48	2	12272048	15	28	35	1	3722048	15	29	17	1	5062048	15	30	12	2	4982048	15	31	14	2	3032048	15	32	29	2	3292048	15	33	16	3	4772048	15	34	3	3	3042048	15	35	33	1	3762048	15	36	32	2	2992048	15	37	41	3	7192048	15	38	27	3	3802048	15	39	10	1	2622048	15	40	28	1	3422048	15	41	11	2	3002048	15	42	21	1	262048	15	43	15	1	4212048	15	44	19	2	3472048	15	45	31	2	3452048	15	46	20	2	3432048	15	47	23	1	5402048	15	48	36	3	3492048	16	1	40	3	99672048	16	2	31	3	13942048	16	3	29	3	3482048	16	4	48	2	4662048	16	5	13	3	4092048	16	6	15	1	29402048	16	7	17	2	17742048	16	8	18	1	4262048	16	9	42	3	5462048	16	10	4	2	712048	16	11	14	1	6682048	16	12	10	3	82048	16	13	8	3	3832048	16	14	6	2	2292048	16	15	35	3	3542048	16	16	34	1	5162048	16	17	37	1	3222048	16	18	21	1	1892048	16	19	43	3	7502048	16	20	22	2	4552048	16	21	38	1	4372048	16	22	32	1	4722048	16	23	3	1	10712048	16	24	1	3	3362048	16	25	19	1	3852048	16	26	25	3	3822048	16	27	33	3	5502048	16	28	28	2	3862048	16	29	16	1	8972048	16	30	30	1	3062048	16	31	7	3	3442048	16	32	47	1	3502048	16	33	2	3	6302048	16	34	5	1	2702048	16	35	9	3	5112048	16	36	44	3	3952048	16	37	24	3	2752048	16	38	46	2	82048	16	39	11	1	1102048	16	40	26	3	3722048	16	41	45	1	1982048	16	42	39	1	5662048	16	43	23	3	1602048	16	44	20	1	2192048	16	45	41	1	11342048	16	46	12	2	52672048	16	47	27	1	65812048	16	48	36	3	2832048	17	1	3	1	11072048	17	2	36	3	6052048	17	3	37	2	3882048	17	4	20	2	11682048	17	5	26	2	20392048	17	6	15	3	6962048	17	7	44	2	2582048	17	8	35	2	6232048	17	9	41	1	5492048	17	10	46	3	4502048	17	11	29	3	6132048	17	12	45	1	4102048	17	13	27	2	11392048	17	14	9	2	3872048	17	15	17	2	4622048	17	16	23	2	13702048	17	17	33	3	4242048	17	18	6	3	5872048	17	19	8	3	5792048	17	20	42	1	6622048	17	21	16	1	5882048	17	22	4	3	4832048	17	23	5	1	4632048	17	24	19	1	7462048	17	25	25	2	3812048	17	26	7	1	12542048	17	27	32	1	5012048	17	28	11	3	3892048	17	29	31	3	9732048	17	30	13	3	10112048	17	31	47	1	5072048	17	32	2	2	4602048	17	33	28	3	4272048	17	34	39	1	3832048	17	35	18	2	4702048	17	36	21	1	5042048	17	37	10	2	3422048	17	38	12	1	4222048	17	39	1	2	2642048	17	40	48	3	4962048	17	41	38	3	14452048	17	42	22	3	4282048	17	43	30	3	6982048	17	44	34	3	4252048	17	45	24	3	6162048	17	46	43	2	5422048	17	47	14	2	4992048	17	48	40	2	5472048	18	1	20	3	11932048	18	2	26	3	7712048	18	3	48	3	12022048	18	4	9	2	10102048	18	5	47	1	8742048	18	6	36	2	6602048	18	7	31	3	4632048	18	8	1	2	4572048	18	9	15	3	4292048	18	10	6	2	8662048	18	11	8	1	7492048	18	12	16	1	7092048	18	13	25	1	6232048	18	14	29	3	7012048	18	15	32	2	9472048	18	16	2	2	4672048	18	17	23	2	8682048	18	18	44	1	8302048	18	19	14	1	7472048	18	20	28	1	7072048	18	21	27	3	5422048	18	22	39	3	5012048	18	23	40	1	8292048	18	24	46	1	4252048	18	25	41	2	4622048	18	26	42	2	5052048	18	27	30	2	7822048	18	28	45	3	4272048	18	29	22	1	7102048	18	30	37	3	6262048	18	31	18	2	3842048	18	32	33	3	7082048	18	33	13	3	3822048	18	34	34	1	5482048	18	35	7	3	7872048	18	36	17	2	5902048	18	37	43	3	6242048	18	38	35	2	5842048	18	39	21	3	6282048	18	40	11	2	7032048	18	41	4	1	7492048	18	42	24	2	3502048	18	43	38	1	5102048	18	44	5	1	1462048	18	45	19	3	3892048	18	46	12	2	5812048	18	47	3	3	5312048	18	48	10	1	3842048	19	1	40	3	4042048	19	2	10	1	3392048	19	3	13	3	3182048	19	4	16	3	2342048	19	5	6	3	4562048	19	6	8	1	9622048	19	7	34	3	47062048	19	8	9	3	52452048	19	9	27	1	12692048	19	10	44	2	17312048	19	11	19	3	8422048	19	12	11	3	5462048	19	13	14	1	19012048	19	14	45	1	37992048	19	15	41	1	5092048	19	16	7	1	5622048	19	17	33	3	4342048	19	18	46	3	3272048	19	19	3	1	1992048	19	20	37	3	2202048	19	21	18	3	3742048	19	22	42	3	3082048	19	23	28	3	3192048	19	24	24	3	2382048	19	25	4	3	4902048	19	26	5	1	2042048	19	27	48	3	2272048	19	28	39	1	3372048	19	29	31	3	3232048	19	30	43	2	2582048	19	31	2	2	862048	19	32	12	3	1982048	19	33	30	1	3632048	19	34	1	2	5322048	19	35	21	1	4442048	19	36	35	2	5312048	19	37	25	2	2512048	19	38	29	3	3472048	19	39	22	3	2082048	19	40	23	1	2952048	19	41	26	2	3542048	19	42	38	1	3272048	19	43	20	2	3292048	19	44	15	3	2322048	19	45	17	2	842048	19	46	47	1	2452048	19	47	32	1	52048	19	48	36	3	2122048	2	1	14	3	23052048	2	2	47	1	11972048	2	3	12	3	11982048	2	4	1	2	4692048	2	5	34	1	3662048	2	6	48	3	4352048	2	7	22	3	9112048	2	8	4	3	9962048	2	9	31	3	6262048	2	10	41	1	5952048	2	11	28	3	3232048	2	12	17	2	3212048	2	13	27	1	6352048	2	14	21	3	7112048	2	15	38	1	4012048	2	16	13	3	3952048	2	17	35	2	3472048	2	18	40	1	6882048	2	19	2	2	2942048	2	20	3	1	3142048	2	21	8	2	6822048	2	22	6	3	2762048	2	23	20	1	6382048	2	24	29	1	4762048	2	25	19	3	5192048	2	26	18	2	2772048	2	27	7	2	2822048	2	28	45	1	3142048	2	29	44	2	3622048	2	30	36	2	3222048	2	31	37	2	33672048	2	32	5	1	4072048	2	33	43	2	2812048	2	34	11	1	3162048	2	35	24	3	4832048	2	36	42	3	13612048	2	37	46	3	2832048	2	38	26	3	4472048	2	39	10	3	2752048	2	40	16	1	4792048	2	41	39	1	6012048	2	42	25	2	3952048	2	43	23	1	3612048	2	44	9	1	2442048	2	45	15	2	14112048	2	46	33	1	3232048	2	47	32	2	2402048	2	48	30	3	3212048	20	1	39	1	5092048	20	2	16	3	11872048	20	3	34	2	17442048	20	4	26	1	8262048	20	5	5	2	16622048	20	6	1	3	7272048	20	7	36	3	8562048	20	8	19	2	5952048	20	9	41	1	9842048	20	10	24	3	6182048	20	11	2	1	8692048	20	12	22	3	5132048	20	13	11	2	6292048	20	14	23	1	6132048	20	15	28	1	8322048	20	16	27	3	6292048	20	17	10	1	6272048	20	18	8	1	9112048	20	19	35	1	14602048	20	20	32	2	11442048	20	21	9	3	5232048	20	22	45	3	11722048	20	23	29	2	8102048	20	24	15	1	6192048	20	25	40	3	7092048	20	26	14	2	9322048	20	27	38	2	8422048	20	28	17	1	5952048	20	29	25	3	6472048	20	30	12	2	6962048	20	31	48	2	5942048	20	32	20	2	6642048	20	33	21	2	12272048	20	34	3	3	9442048	20	35	6	3	9712048	20	36	31	2	7312048	20	37	4	3	7472048	20	38	46	1	4452048	20	39	37	1	7082048	20	40	43	3	11552048	20	41	18	3	10322048	20	42	13	3	7742048	20	43	44	1	6872048	20	44	47	2	5352048	20	45	30	2	17322048	20	46	42	3	4912048	20	47	33	2	6182048	20	48	7	3	5162048	21	1	2	2	19162048	21	2	18	2	10202048	21	3	27	3	7912048	21	4	22	1	14182048	21	5	39	3	11902048	21	6	26	1	5642048	21	7	10	1	7402048	21	8	6	2	6472048	21	9	14	1	6312048	21	10	28	3	13652048	21	11	5	2	8042048	21	12	42	2	8042048	21	13	4	3	12532048	21	14	12	2	5082048	21	15	19	3	4662048	21	16	33	3	6202048	21	17	44	1	5192048	21	18	3	3	3492048	21	19	9	3	3852048	21	20	17	2	3492048	21	21	8	1	6092048	21	22	25	3	4892048	21	23	21	3	6342048	21	24	11	2	3912048	21	25	47	2	21972048	21	26	40	1	3302048	21	27	35	2	2962048	21	28	30	2	3082048	21	29	32	1	3702048	21	30	41	2	3462048	21	31	43	3	6202048	21	32	45	3	1672048	21	33	37	3	6152048	21	34	16	1	3862048	21	35	36	2	4602048	21	36	31	3	5502048	21	37	13	3	7882048	21	38	48	2	2892048	21	39	24	2	6182048	21	40	29	2	6132048	21	41	20	2	12122048	21	42	15	3	4602048	21	43	7	3	26622048	21	44	38	1	10652048	21	45	23	2	5252048	21	46	34	1	3402048	21	47	1	3	6952048	21	48	46	1	2892048	22	1	15	1	11562048	22	2	2	3	12752048	22	3	7	2	13082048	22	4	43	3	6102048	22	5	18	2	7932048	22	6	3	1	5832048	22	7	22	3	6012048	22	8	24	3	10252048	22	9	29	1	11652048	22	10	27	1	4362048	22	11	13	3	3612048	22	12	21	3	4962048	22	13	33	3	5002048	22	14	23	2	2642048	22	15	37	3	2822048	22	16	16	1	4812048	22	17	17	2	2572048	22	18	6	3	3562048	22	19	10	3	9222048	22	20	9	3	4822048	22	21	35	2	4812048	22	22	4	3	6422048	22	23	14	1	4492048	22	24	38	1	2012048	22	25	42	2	13932048	22	26	48	3	4722048	22	27	5	1	3732048	22	28	41	1	11332048	22	29	1	2	10842048	22	30	44	3	3892048	22	31	26	2	11052048	22	32	30	3	6202048	22	33	25	2	13832048	22	34	46	3	2492048	22	35	12	2	2952048	22	36	32	1	3572048	22	37	34	1	2972048	22	38	11	2	2762048	22	39	28	3	5222048	22	40	39	3	7702048	22	41	47	2	4412048	22	42	20	1	3062048	22	43	36	2	2842048	22	44	8	2	3252048	22	45	45	1	3092048	22	46	19	3	3062048	22	47	31	3	3322048	22	48	40	1	7482048	23	1	5	1	14412048	23	2	28	3	12152048	23	3	37	2	22962048	23	4	32	2	10572048	23	5	45	1	5792048	23	6	35	2	9042048	23	7	7	2	3622048	23	8	8	2	27382048	23	9	15	3	5812048	23	10	9	2	38162048	23	11	12	3	4172048	23	12	14	1	3562048	23	13	39	1	9532048	23	14	26	3	3922048	23	15	6	3	3572048	23	16	42	1	31302048	23	17	36	2	6972048	23	18	34	1	22292048	23	19	47	1	11382048	23	20	31	3	4042048	23	21	19	2	23242048	23	22	41	3	37172048	23	23	1	2	4572048	23	24	44	2	2922048	23	25	20	1	5092048	23	26	11	3	3382048	23	27	38	2	5332048	23	28	16	3	4132048	23	29	2	2	3652048	23	30	23	2	13962048	23	31	22	3	3132048	23	32	48	3	3112048	23	33	24	3	5162048	23	34	46	3	3612048	23	35	18	3	8022048	23	36	33	3	5462048	23	37	25	2	2552048	23	38	3	2	5782048	23	39	17	2	2932048	23	40	29	1	4492048	23	41	10	3	3912048	23	42	13	3	4372048	23	43	21	1	2972048	23	44	27	1	8052048	23	45	4	3	4852048	23	46	40	2	9482048	23	47	30	1	7862048	23	48	43	2	4122048	24	1	34	3	15222048	24	2	22	3	29642048	24	3	21	1	22762048	24	4	26	3	23942048	24	5	19	2	35742048	24	6	8	3	33312048	24	7	20	2	9702048	24	8	43	2	16922048	24	9	45	1	11012048	24	10	15	1	18952048	24	11	17	2	9622048	24	12	42	3	6742048	24	13	6	3	7412048	24	14	2	2	6972048	24	15	31	3	8042048	24	16	28	3	24672048	24	17	9	1	16502048	24	18	11	3	6342048	24	19	40	2	18312048	24	20	27	2	7722048	24	21	33	3	55482048	24	22	18	2	19542048	24	23	5	1	7122048	24	24	46	3	16042048	24	25	32	1	5472048	24	26	39	2	17952048	24	27	23	1	7432048	24	28	14	1	5862048	24	29	10	2	7482048	24	30	29	1	9312048	24	31	12	1	9232048	24	32	24	3	8342048	24	33	1	2	5512048	24	34	7	2	7892048	24	35	13	3	6422048	24	36	41	1	4012048	24	37	44	2	4982048	24	38	25	2	5322048	24	39	16	1	4122048	24	40	4	3	4602048	24	41	3	1	3752048	24	42	38	3	3552048	24	43	47	1	6482048	24	44	37	2	6792048	24	45	35	1	7482048	24	46	36	3	20812048	24	47	30	3	21952048	24	48	48	3	4072048	26	1	19	2	9072048	26	2	27	1	5672048	26	3	46	3	4122048	26	4	40	2	9212048	26	5	16	1	6722048	26	6	17	2	4252048	26	7	41	1	7022048	26	8	20	2	3682048	26	9	42	3	9572048	26	10	34	1	8032048	26	11	13	3	6932048	26	12	7	1	8842048	26	13	32	1	6552048	26	14	22	1	9932048	26	15	6	3	5372048	26	16	15	3	5472048	26	17	18	2	2432048	26	18	28	2	8202048	26	19	30	2	8982048	26	20	39	1	6982048	26	21	33	3	7062048	26	22	8	2	6552048	26	23	14	1	6892048	26	24	26	2	5432048	26	25	29	1	9412048	26	26	35	2	8192048	26	27	37	3	8322048	26	28	36	2	3062048	26	29	24	3	7812048	26	30	48	3	5932048	26	31	23	1	6292048	26	32	9	2	7132048	26	33	31	3	4162048	26	34	45	1	5132048	26	35	47	1	5312048	26	36	25	1	6292048	26	37	5	1	6962048	26	38	4	3	2442048	26	39	11	1	3792048	26	40	10	3	6752048	26	41	21	3	2632048	26	42	12	3	2982048	26	43	2	2	5342048	26	44	43	2	4932048	26	45	1	2	7882048	26	46	44	2	2612048	26	47	38	2	6242048	26	48	3	1	5462048	28	1	42	3	34352048	28	2	16	1	6382048	28	3	48	3	2082048	28	4	30	3	19002048	28	5	14	1	8932048	28	6	10	1	9142048	28	7	40	1	8422048	28	8	15	3	17262048	28	9	7	3	6422048	28	10	32	1	8032048	28	11	4	1	7872048	28	12	27	3	6592048	28	13	11	2	6762048	28	14	21	3	7412048	28	15	37	3	5982048	28	16	28	1	7172048	28	17	25	3	5252048	28	18	12	2	3902048	28	19	36	2	6412048	28	20	5	2	8452048	28	21	41	2	3532048	28	22	33	3	4102048	28	23	34	1	3812048	28	24	20	2	18752048	28	25	44	1	5342048	28	26	24	2	5652048	28	27	29	2	6662048	28	28	2	1	7252048	28	29	8	1	5182048	28	30	1	3	6102048	28	31	38	1	3052048	28	32	45	3	432048	28	33	26	3	28832048	28	34	46	1	2352048	28	35	43	3	6502048	28	36	18	2	3102048	28	37	47	2	6302048	28	38	9	3	5252048	28	39	39	3	6482048	28	40	3	3	3872048	28	41	13	3	6192048	28	42	19	3	3572048	28	43	23	2	4452048	28	44	35	2	3132048	28	45	6	2	4682048	28	46	17	2	4722048	28	47	22	1	3862048	28	48	31	3	3072048	29	1	20	2	25032048	29	2	29	1	37832048	29	3	19	2	28602048	29	4	33	3	25622048	29	5	4	3	36462048	29	6	25	1	26542048	29	7	34	1	25032048	29	8	15	3	19042048	29	9	41	2	18342048	29	10	35	2	16342048	29	11	10	3	26422048	29	12	8	2	25722048	29	13	39	3	23452048	29	14	37	3	20802048	29	15	3	1	19352048	29	16	18	2	16772048	29	17	9	1	10602048	29	18	21	3	18462048	29	19	44	2	19322048	29	20	1	2	19762048	29	21	40	1	26792048	29	22	17	2	40372048	29	23	48	3	18262048	29	24	22	1	14542048	29	25	23	2	8342048	29	26	12	1	8022048	29	27	31	3	7662048	29	28	5	1	7962048	29	29	43	2	8482048	29	30	30	1	10102048	29	31	6	3	6112048	29	32	32	1	22242048	29	33	7	2	8522048	29	34	2	2	6562048	29	35	38	1	15872048	29	36	45	1	9212048	29	37	47	1	7432048	29	38	16	1	5322048	29	39	36	2	10452048	29	40	46	1	9822048	29	41	11	3	8132048	29	42	26	2	12902048	29	43	14	1	15822048	29	44	27	1	17062048	29	45	42	3	7062048	29	46	13	3	10082048	29	47	24	2	22102048	29	48	28	3	9322048	3	1	43	2	11042048	3	2	32	2	5982048	3	3	16	2	6372048	3	4	2	3	5502048	3	5	14	3	4762048	3	6	13	3	9112048	3	7	26	2	4362048	3	8	29	1	3892048	3	9	8	2	10252048	3	10	15	3	6542048	3	11	36	2	2772048	3	12	47	1	3572048	3	13	4	3	2612048	3	14	22	1	3922048	3	15	34	1	2752048	3	16	30	3	12272048	3	17	38	1	13462048	3	18	39	2	8302048	3	19	40	2	5532048	3	20	46	3	2992048	3	21	3	1	4342048	3	22	25	1	4692048	3	23	17	2	2812048	3	24	41	3	2802048	3	25	31	3	2402048	3	26	9	2	5782048	3	27	24	2	6062048	3	28	20	1	4342048	3	29	42	2	2682048	3	30	6	3	2402048	3	31	21	3	3342048	3	32	18	2	2582048	3	33	1	2	2682048	3	34	33	3	3212048	3	35	12	1	12292048	3	36	28	2	6712048	3	37	35	3	8672048	3	38	7	1	4372048	3	39	48	3	4712048	3	40	37	3	2842048	3	41	11	3	2432048	3	42	23	2	2802048	3	43	5	1	4282048	3	44	44	2	3572048	3	45	10	2	2352048	3	46	19	3	3122048	3	47	45	1	2972048	3	48	27	2	2732048	30	1	1	2	19142048	30	2	22	3	14332048	30	3	3	1	10452048	30	4	41	1	13692048	30	5	19	2	16732048	30	6	23	1	12702048	30	7	37	1	10922048	30	8	8	2	12122048	30	9	38	2	8292048	30	10	13	3	14102048	30	11	35	1	37532048	30	12	2	2	11732048	30	13	42	2	9132048	30	14	47	1	8062048	30	15	21	1	10142048	30	16	20	2	8172048	30	17	32	1	9802048	30	18	26	2	10302048	30	19	10	3	10442048	30	20	27	1	9002048	30	21	48	3	8232048	30	22	40	1	11132048	30	23	6	3	9502048	30	24	9	1	11392048	30	25	43	2	1192048	30	26	30	3	4442048	30	27	17	2	5802048	30	28	34	1	5662048	30	29	15	3	8382048	30	30	39	3	9722048	30	31	14	1	3312048	30	32	7	2	8452048	30	33	25	2	6752048	30	34	45	1	402048	30	35	16	1	14082048	30	36	31	3	9222048	30	37	24	2	8322048	30	38	4	3	7432048	30	39	11	1	9362048	30	40	28	3	6442048	30	41	18	2	10922048	30	42	5	1	8772048	30	43	33	3	4092048	30	44	29	1	8892048	30	45	12	3	4562048	30	46	44	2	7242048	30	47	46	3	9002048	30	48	36	2	9822048	31	1	1	2	10172048	31	2	18	1	23912048	31	3	22	1	7752048	31	4	42	3	7572048	31	5	16	1	4262048	31	6	32	1	4772048	31	7	35	1	3622048	31	8	26	3	9622048	31	9	6	3	11372048	31	10	34	1	18772048	31	11	40	1	19942048	31	12	27	2	18482048	31	13	2	2	4562048	31	14	24	3	5462048	31	15	13	3	3322048	31	16	47	1	11482048	31	17	23	2	14572048	31	18	28	1	7082048	31	19	8	1	2742048	31	20	10	2	15922048	31	21	4	3	4202048	31	22	38	3	14322048	31	23	39	2	8852048	31	24	48	3	7412048	31	25	3	1	19592048	31	26	44	2	3622048	31	27	21	2	6922048	31	28	11	2	3482048	31	29	14	1	4182048	31	30	9	1	4362048	31	31	43	2	4092048	31	32	12	3	2342048	31	33	41	1	3422048	31	34	5	1	3132048	31	35	33	1	15912048	31	36	31	2	11732048	31	37	36	1	6522048	31	38	19	3	2202048	31	39	30	3	3282048	31	40	37	2	11442048	31	41	29	3	5212048	31	42	7	2	9292048	31	43	46	3	10022048	31	44	20	2	16342048	31	45	15	2	23272048	31	46	17	3	9992048	31	47	25	2	17732048	31	48	45	1	3162048	4	1	19	2	25732048	4	2	10	2	21342048	4	3	3	1	10882048	4	4	21	1	7452048	4	5	29	3	8222048	4	6	38	3	7502048	4	7	12	3	19772048	4	8	5	1	5762048	4	9	34	1	7772048	4	10	43	2	7012048	4	11	39	2	5102048	4	12	26	3	9812048	4	13	7	1	17842048	4	14	44	2	6282048	4	15	30	3	5072048	4	16	31	3	21272048	4	17	22	3	5502048	4	18	2	2	5912048	4	19	18	2	6242048	4	20	36	3	5422048	4	21	27	2	4102048	4	22	23	2	5132048	4	23	11	3	5472048	4	24	14	1	5102048	4	25	47	1	3292048	4	26	42	3	5412048	4	27	48	3	3832048	4	28	35	2	4992048	4	29	8	3	10622048	4	30	4	3	4272048	4	31	33	3	3852048	4	32	46	3	3542048	4	33	20	2	18932048	4	34	25	3	11062048	4	35	24	2	6202048	4	36	41	3	13822048	4	37	1	2	6272048	4	38	15	3	3472048	4	39	9	2	5082048	4	40	16	2	14552048	4	41	13	3	5102048	4	42	6	3	10072048	4	43	17	3	28082048	4	44	40	2	4692048	4	45	37	3	23612048	4	46	28	2	9442048	4	47	32	1	5072048	4	48	45	1	4212048	40	1	35	1	6292048	40	2	19	2	13342048	40	3	15	1	28002048	40	4	7	1	12612048	40	5	41	1	2202048	40	6	13	1	2832048	40	7	18	3	40862048	40	8	36	2	30652048	40	9	42	2	2282048	40	10	45	1	2332048	40	11	16	1	24732048	40	12	25	2	2522048	40	13	1	2	26702048	40	14	22	1	23342048	40	15	32	1	34252048	40	16	28	3	32048	40	17	47	1	29262048	40	18	17	2	2042048	40	19	12	3	21252048	40	20	14	1	1982048	40	21	48	3	24432048	40	22	38	1	27872048	40	23	24	2	3072048	40	24	37	3	1582048	40	25	46	3	35012048	40	26	2	2	2092048	40	27	20	3	2012048	40	28	43	2	972048	40	29	4	3	43042048	40	30	34	1	2312048	40	31	31	3	34352048	40	32	5	1	1952048	40	33	27	1	2042048	40	34	11	3	9102048	40	35	21	1	17182048	40	36	40	1	112048	40	37	33	3	1882048	40	38	29	3	3232048	40	39	30	3	27122048	40	40	23	2	38902048	40	41	26	2	47592048	40	42	3	1	182048	40	43	10	1	3792048	40	44	9	2	13222048	40	45	39	3	15282048	40	46	8	2	47432048	40	47	6	3	43412048	40	48	44	2	44292048	5	1	36	2	10672048	5	2	34	1	24742048	5	3	7	2	10972048	5	4	28	3	11402048	5	5	45	1	8312048	5	6	48	3	5872048	5	7	23	2	7512048	5	8	17	2	6782048	5	9	13	3	6632048	5	10	32	1	7032048	5	11	9	1	11842048	5	12	22	1	8672048	5	13	19	3	12472048	5	14	43	2	5802048	5	15	40	1	9032048	5	16	27	1	10082048	5	17	3	2	6692048	5	18	8	2	6722048	5	19	35	2	6232048	5	20	47	3	14532048	5	21	25	2	10252048	5	22	42	2	9772048	5	23	24	2	12172048	5	24	39	3	6642048	5	25	20	1	8662048	5	26	46	3	6152048	5	27	41	2	7542048	5	28	21	3	6912048	5	29	11	1	9082048	5	30	18	2	7022048	5	31	1	2	5902048	5	32	12	3	6232048	5	33	37	3	6202048	5	34	29	1	7492048	5	35	31	3	7492048	5	36	16	1	6672048	5	37	6	3	5902048	5	38	44	2	6232048	5	39	5	1	6212048	5	40	4	3	5522048	5	41	26	3	6202048	5	42	38	1	6302048	5	43	2	2	9442048	5	44	30	3	5862048	5	45	10	3	7902048	5	46	15	3	28052048	5	47	14	1	9422048	5	48	33	3	7012048	6	1	37	3	4802048	6	2	42	3	9122048	6	3	15	2	9112048	6	4	22	3	3902048	6	5	16	2	5412048	6	6	13	1	4642048	6	7	46	3	4282048	6	8	29	3	5452048	6	9	8	3	5082048	6	10	19	2	6512048	6	11	41	1	5462048	6	12	9	2	5102048	6	13	20	2	5042048	6	14	24	3	3922048	6	15	25	2	3892048	6	16	47	2	3842048	6	17	27	2	9472048	6	18	45	1	5472048	6	19	44	2	3482048	6	20	6	3	3142048	6	21	34	3	5752048	6	22	31	2	9882048	6	23	48	3	5012048	6	24	36	1	11672048	6	25	2	2	2642048	6	26	38	2	10242048	6	27	23	2	4942048	6	28	18	2	4142048	6	29	32	1	3452048	6	30	43	3	4682048	6	31	40	1	7482048	6	32	10	1	3922048	6	33	3	3	2672048	6	34	4	3	3522048	6	35	11	2	2642048	6	36	35	1	3512048	6	37	5	1	2742048	6	38	26	1	3472048	6	39	7	3	3492048	6	40	17	2	5512048	6	41	28	1	3932048	6	42	21	3	3112048	6	43	12	2	3882048	6	44	14	3	14042048	6	45	30	2	2692048	6	46	1	3	2762048	6	47	39	1	4672048	6	48	33	3	2722048	7	1	13	1	12492048	7	2	45	1	49912048	7	3	23	1	7472048	7	4	3	1	6652048	7	5	31	3	4552048	7	6	36	3	5082048	7	7	27	2	8202048	7	8	26	2	8672048	7	9	20	1	5482048	7	10	14	1	8262048	7	11	2	2	6202048	7	12	48	3	6682048	7	13	22	3	15412048	7	14	30	3	4872048	7	15	11	3	3462048	7	16	29	2	5072048	7	17	19	2	5422048	7	18	33	1	7392048	7	19	42	1	5112048	7	20	21	1	4272048	7	21	41	1	6232048	7	22	40	2	3032048	7	23	16	1	3512048	7	24	46	2	12462048	7	25	28	3	5782048	7	26	4	2	3452048	7	27	39	2	3872048	7	28	10	2	3132048	7	29	32	2	3502048	7	30	25	2	2332048	7	31	7	2	2722048	7	32	38	1	3062048	7	33	37	1	4622048	7	34	8	2	3052048	7	35	12	3	3432048	7	36	34	3	3832048	7	37	5	1	6272048	7	38	1	2	4952048	7	39	35	1	9782048	7	40	6	3	2472048	7	41	43	2	5672048	7	42	9	2	16522048	7	43	47	1	3472048	7	44	44	2	5082048	7	45	24	3	3442048	7	46	17	2	3102048	7	47	15	3	692048	7	48	18	3	4992048	8	1	26	2	45762048	8	2	38	3	6862048	8	3	11	2	102052048	8	4	39	2	7882048	8	5	14	1	10482048	8	6	36	2	10212048	8	7	22	1	5002048	8	8	18	3	8992048	8	9	28	3	7662048	8	10	44	2	2812048	8	11	45	1	6812048	8	12	15	3	3512048	8	13	9	2	2712048	8	14	40	1	5022048	8	15	24	2	3882048	8	16	1	2	3412048	8	17	35	1	3412048	8	18	5	2	5802048	8	19	25	3	19002048	8	20	12	2	5452048	8	21	34	3	2962048	8	22	27	3	9812048	8	23	19	3	2572048	8	24	8	1	6542048	8	25	48	3	3482048	8	26	21	1	7452048	8	27	33	3	3862048	8	28	41	2	3422048	8	29	17	2	3002048	8	30	3	1	3482048	8	31	13	1	6272048	8	32	30	3	2232048	8	33	42	2	2522048	8	34	4	2	2682048	8	35	43	3	5492048	8	36	20	1	2292048	8	37	31	1	5462048	8	38	2	2	2242048	8	39	37	3	2232048	8	40	10	1	3092048	8	41	46	2	5342048	8	42	32	1	3462048	8	43	7	3	15442048	8	44	6	3	2622048	8	45	47	1	2242048	8	46	16	2	6622048	8	47	29	1	242048	8	48	23	1	2222048	9	1	30	2	22942048	9	2	9	3	40332048	9	3	42	3	8632048	9	4	2	1	92062048	9	5	28	1	772048	9	6	36	2	11482048	9	7	22	1	22932048	9	8	37	3	10612048	9	9	41	2	762048	9	10	38	1	17772048	9	11	19	3	7062048	9	12	25	3	53352048	9	13	13	3	12952048	9	14	29	1	7042048	9	15	10	3	7822048	9	16	47	2	4392048	9	17	43	3	6562048	9	18	45	3	6692048	9	19	21	3	12512048	9	20	6	3	13652048	9	21	14	1	36962048	9	22	3	2	11812048	9	23	48	3	10362048	9	24	23	1	6302048	9	25	33	3	2102048	9	26	8	2	3542048	9	27	24	2	2732048	9	28	12	3	3182048	9	29	27	1	3052048	9	30	11	1	8552048	9	31	34	1	2672048	9	32	16	1	2662048	9	33	35	2	3452048	9	34	40	3	8942048	9	35	46	2	4302048	9	36	20	3	5032048	9	37	32	1	4612048	9	38	31	3	4632048	9	39	26	2	4812048	9	40	44	3	1882048	9	41	1	3	4712048	9	42	15	3	6572048	9	43	5	1	5912048	9	44	7	2	3962048	9	45	18	2	4322048	9	46	39	2	373252048	9	47	17	2	4232048	9	48	4	1	8263072	20	1	44	3	107693072	20	2	38	2	4553072	20	3	3	1	30213072	20	4	41	3	4063072	20	5	20	2	5473072	20	6	8	2	5103072	20	7	14	1	4493072	20	8	40	2	6143072	20	9	4	3	3483072	20	10	7	2	5283072	20	11	31	3	4533072	20	12	33	1	2373072	20	13	2	2	2323072	20	14	34	3	3063072	20	15	24	3	2863072	20	16	6	3	2753072	20	17	26	2	6613072	20	18	28	2	2623072	20	19	9	1	5173072	20	20	22	1	2653072	20	21	46	3	3763072	20	22	19	3	7053072	20	23	30	3	8223072	20	24	18	3	3453072	20	25	16	1	2003072	20	26	11	3	3653072	20	27	13	3	3703072	20	28	48	3	3133072	20	29	35	1	5303072	20	30	5	1	4883072	20	31	25	2	12863072	20	32	29	1	10423072	20	33	1	2	6733072	20	34	23	1	4033072	20	35	27	1	4813072	20	36	32	1	3343072	20	37	36	3	3653072	20	38	39	3	5473072	20	39	21	1	2193072	20	40	17	2	4703072	20	41	37	3	4483072	20	42	45	1	4223072	20	43	43	2	3573072	20	44	10	3	3453072	20	45	15	3	3293072	20	46	42	2	3093072	20	47	12	3	2403072	20	48	47	1	3813072	1	1	33	1	19623072	1	2	39	2	10513072	1	3	25	2	22023072	1	4	20	2	9483072	1	5	19	2	5923072	1	6	26	3	5483072	1	7	48	3	7493072	1	8	11	1	10523072	1	9	24	2	5123072	1	10	13	3	3193072	1	11	38	3	15333072	1	12	7	1	9083072	1	13	44	2	21243072	1	14	21	1	25623072	1	15	47	2	6743072	1	16	31	3	3903072	1	17	27	3	9873072	1	18	15	3	3163072	1	19	6	2	3263072	1	20	23	1	6753072	1	21	3	3	3253072	1	22	42	2	5033072	1	23	10	1	15053072	1	24	22	1	5913072	1	25	29	2	3193072	1	26	34	1	7853072	1	27	18	2	3163072	1	28	5	2	7183072	1	29	43	3	6013072	1	30	17	2	6333072	1	31	30	2	4793072	1	32	32	1	2353072	1	33	41	2	3943072	1	34	35	2	4013072	1	35	16	1	2793072	1	36	12	2	4153072	1	37	2	1	3163072	1	38	9	3	3263072	1	39	1	3	2813072	1	40	28	3	19693072	1	41	37	3	3283072	1	42	46	1	3983072	1	43	36	2	3933072	1	44	45	3	5593072	1	45	40	1	2353072	1	46	8	1	2463072	1	47	4	1	2043072	1	48	14	1	3653072	10	1	31	3	3303072	10	2	38	3	12253072	10	3	19	3	4903072	10	4	17	2	5353072	10	5	4	3	11023072	10	6	13	3	3743072	10	7	43	3	5743072	10	8	33	3	3673072	10	9	14	1	2933072	10	10	16	1	3643072	10	11	7	3	5303072	10	12	40	1	7273072	10	13	15	3	3253072	10	14	9	3	4503072	10	15	24	2	3753072	10	16	45	3	3353072	10	17	26	1	4783072	10	18	34	1	5703072	10	19	48	2	3263072	10	20	47	2	3093072	10	21	37	3	7823072	10	22	27	3	3743072	10	23	32	1	3503072	10	24	44	1	3373072	10	25	30	2	4013072	10	26	25	3	2843072	10	27	23	2	4213072	10	28	39	3	2923072	10	29	22	1	5223072	10	30	42	2	3543072	10	31	12	2	3533072	10	32	46	1	3723072	10	33	1	3	3293072	10	34	10	1	3433072	10	35	11	2	4703072	10	36	36	2	13303072	10	37	28	1	8873072	10	38	5	2	5003072	10	39	41	2	3083072	10	40	18	2	6703072	10	41	3	3	4023072	10	42	21	3	3663072	10	43	20	1	2763072	10	44	8	1	4233072	10	45	35	2	2953072	10	46	29	2	5593072	10	47	2	1	4573072	10	48	6	2	2893072	11	1	26	2	35533072	11	2	17	2	6433072	11	3	35	2	4653072	11	4	22	3	18333072	11	5	34	1	5953072	11	6	3	1	4863072	11	7	5	1	4203072	11	8	37	2	8193072	11	9	32	1	5303072	11	10	30	1	14663072	11	11	41	1	5543072	11	12	20	2	4993072	11	13	43	2	3383072	11	14	31	3	16993072	11	15	4	3	3073072	11	16	18	3	4773072	11	17	1	2	3303072	11	18	27	2	4383072	11	19	48	3	4263072	11	20	16	1	5693072	11	21	11	1	6143072	11	22	46	3	3663072	11	23	13	2	4353072	11	24	33	3	3433072	11	25	19	2	2793072	11	26	38	2	3463072	11	27	28	3	4253072	11	28	15	3	3763072	11	29	9	2	4813072	11	30	25	1	3653072	11	31	45	1	4033072	11	32	2	2	3213072	11	33	29	3	4783072	11	34	7	1	5533072	11	35	21	1	3243072	11	36	23	1	4333072	11	37	40	2	8033072	11	38	39	1	3213072	11	39	42	3	2703072	11	40	10	2	3213072	11	41	36	3	3653072	11	42	6	3	3073072	11	43	8	2	4943072	11	44	14	3	8463072	11	45	44	2	3553072	11	46	12	1	5033072	11	47	24	3	2953072	11	48	47	1	3193072	12	1	3	3	8523072	12	2	8	2	6023072	12	3	43	2	3353072	12	4	32	2	3843072	12	5	10	2	3753072	12	6	9	1	5123072	12	7	17	3	2253072	12	8	33	3	5053072	12	9	25	3	6013072	12	10	39	2	4803072	12	11	42	3	5373072	12	12	35	1	4653072	12	13	14	3	3463072	12	14	24	3	4453072	12	15	22	3	5133072	12	16	41	1	4213072	12	17	23	1	3573072	12	18	5	2	4553072	12	19	34	3	3193072	12	20	31	2	6343072	12	21	12	2	3893072	12	22	28	3	4953072	12	23	30	2	6243072	12	24	27	3	4073072	12	25	40	3	5803072	12	26	2	2	4203072	12	27	29	3	7563072	12	28	1	3	7763072	12	29	37	2	4633072	12	30	16	2	3433072	12	31	4	3	4553072	12	32	48	3	7353072	12	33	44	2	4783072	12	34	46	3	4413072	12	35	21	1	5283072	12	36	38	2	4203072	12	37	47	1	6283072	12	38	6	3	3513072	12	39	11	3	5303072	12	40	7	1	4233072	12	41	13	2	4883072	12	42	15	1	8693072	12	43	20	2	4003072	12	44	19	2	5083072	12	45	36	3	4643072	12	46	26	2	6003072	12	47	45	1	3453072	12	48	18	3	3613072	13	1	31	2	12533072	13	2	42	3	10033072	13	3	29	2	13763072	13	4	47	2	6093072	13	5	3	1	6293072	13	6	1	2	4643072	13	7	38	2	5693072	13	8	13	3	3103072	13	9	5	1	3843072	13	10	9	1	11283072	13	11	15	3	3583072	13	12	21	3	3283072	13	13	20	2	4063072	13	14	18	2	5313072	13	15	23	1	6803072	13	16	35	2	2183072	13	17	28	2	3873072	13	18	43	2	2683072	13	19	30	3	2243072	13	20	40	2	10013072	13	21	45	1	2533072	13	22	39	2	7973072	13	23	24	2	6333072	13	24	36	2	3063072	13	25	41	3	2353072	13	26	34	1	2463072	13	27	48	3	3393072	13	28	2	2	3223072	13	29	37	3	4653072	13	30	17	2	2963072	13	31	12	3	1763072	13	32	7	2	2243072	13	33	11	1	2483072	13	34	4	3	4853072	13	35	33	3	2903072	13	36	22	1	3923072	13	37	6	3	3543072	13	38	46	3	4533072	13	39	19	3	2693072	13	40	8	2	3053072	13	41	44	2	2493072	13	42	16	1	2463072	13	43	32	1	3063072	13	44	27	1	3153072	13	45	10	3	2463072	13	46	25	2	2263072	13	47	26	2	3653072	13	48	14	1	3553072	14	1	20	2	6633072	14	2	6	3	7603072	14	3	5	1	5253072	14	4	13	3	3723072	14	5	37	3	4603072	14	6	43	2	4043072	14	7	33	3	12173072	14	8	30	3	8653072	14	9	7	2	9053072	14	10	4	3	3613072	14	11	31	3	8633072	14	12	48	3	6303072	14	13	1	2	5613072	14	14	16	1	15983072	14	15	3	1	6023072	14	16	44	2	9433072	14	17	35	1	8233072	14	18	47	2	14143072	14	19	46	1	8623072	14	20	9	2	4063072	14	21	26	1	8523072	14	22	10	2	6023072	14	23	28	3	3823072	14	24	38	1	7573072	14	25	24	2	2813072	14	26	21	3	6383072	14	27	41	2	6323072	14	28	36	2	5483072	14	29	42	2	5423072	14	30	32	1	10793072	14	31	15	3	9863072	14	32	12	2	17863072	14	33	45	3	5373072	14	34	19	1	5453072	14	35	34	1	7293072	14	36	27	2	7893072	14	37	29	1	6413072	14	38	39	3	5273072	14	39	25	1	14133072	14	40	17	2	4103072	14	41	22	1	3913072	14	42	8	2	8333072	14	43	14	1	3893072	14	44	23	2	4793072	14	45	18	2	4263072	14	46	2	2	8573072	14	47	11	3	7383072	14	48	40	1	4663072	15	1	15	3	24813072	15	2	29	3	33593072	15	3	33	2	18173072	15	4	30	2	13943072	15	5	9	2	15083072	15	6	27	3	8473072	15	7	7	3	5973072	15	8	18	2	8233072	15	9	14	1	7763072	15	10	43	3	6703072	15	11	36	2	5923072	15	12	45	3	6133072	15	13	26	1	10503072	15	14	25	1	12713072	15	15	13	3	5133072	15	16	3	1	2123072	15	17	35	2	5213072	15	18	22	1	4963072	15	19	23	2	1413072	15	20	41	2	3923072	15	21	19	3	1783072	15	22	4	1	8023072	15	23	5	1	9923072	15	24	24	2	1113072	15	25	6	2	4373072	15	26	42	2	4403072	15	27	21	3	3003072	15	28	1	2	2933072	15	29	31	3	3133072	15	30	48	3	3403072	15	31	17	2	3413072	15	32	11	1	4043072	15	33	16	1	4013072	15	34	38	1	3833072	15	35	40	1	4403072	15	36	37	3	3133072	15	37	47	1	3403072	15	38	32	1	3883072	15	39	2	2	4793072	15	40	10	3	4263072	15	41	34	1	4573072	15	42	46	3	5133072	15	43	28	3	4203072	15	44	44	2	3563072	15	45	20	1	3433072	15	46	12	3	4393072	15	47	39	3	3463072	15	48	8	2	2813072	16	1	46	3	21853072	16	2	16	1	6813072	16	3	26	2	4763072	16	4	42	3	8403072	16	5	47	1	4313072	16	6	48	3	5293072	16	7	33	3	2473072	16	8	41	2	3563072	16	9	44	2	2463072	16	10	22	1	5633072	16	11	28	2	5613072	16	12	8	2	4313072	16	13	14	1	4803072	16	14	5	1	2543072	16	15	18	2	2393072	16	16	11	3	3283072	16	17	30	3	3583072	16	18	17	2	2973072	16	19	39	3	3683072	16	20	45	1	2633072	16	21	31	3	4393072	16	22	13	3	3453072	16	23	15	3	3933072	16	24	1	2	4203072	16	25	29	1	3713072	16	26	34	1	3123072	16	27	36	2	2603072	16	28	19	2	5163072	16	29	3	1	4863072	16	30	20	1	3073072	16	31	4	3	3193072	16	32	37	3	3933072	16	33	40	1	3083072	16	34	7	2	4133072	16	35	32	1	2873072	16	36	27	2	8033072	16	37	21	3	3363072	16	38	25	2	7523072	16	39	38	1	3403072	16	40	23	2	3553072	16	41	9	1	2613072	16	42	12	3	2783072	16	43	43	2	3133072	16	44	24	2	3243072	16	45	2	2	3683072	16	46	35	2	3263072	16	47	10	3	3853072	16	48	6	3	2683072	17	1	23	1	43563072	17	2	41	2	9533072	17	3	46	3	6763072	17	4	5	1	5053072	17	5	29	3	5853072	17	6	42	2	7293072	17	7	39	3	4223072	17	8	37	3	2953072	17	9	38	1	2713072	17	10	14	1	4023072	17	11	4	1	4143072	17	12	40	1	4153072	17	13	45	3	6383072	17	14	43	2	3453072	17	15	1	2	3613072	17	16	2	1	3673072	17	17	22	1	3403072	17	18	17	2	2453072	17	19	13	3	2743072	17	20	16	1	3723072	17	21	7	3	16583072	17	22	32	1	2413072	17	23	28	1	3663072	17	24	48	2	2603072	17	25	10	1	3083072	17	26	31	3	3353072	17	27	9	3	2863072	17	28	20	1	3093072	17	29	8	1	3033072	17	30	36	2	3113072	17	31	3	3	3063072	17	32	44	1	3133072	17	33	15	3	2603072	17	34	21	3	2293072	17	35	35	2	3503072	17	36	30	2	2903072	17	37	34	1	2473072	17	38	27	3	4043072	17	39	12	2	2743072	17	40	6	2	5333072	17	41	33	3	3303072	17	42	24	2	2473072	17	43	18	2	2603072	17	44	26	1	3723072	17	45	19	3	2653072	17	46	11	2	2493072	17	47	25	3	3263072	17	48	47	2	2763072	18	1	3	3	25253072	18	2	8	1	16193072	18	3	4	3	15873072	18	4	19	3	9903072	18	5	10	1	3053072	18	6	26	1	4413072	18	7	41	2	4143072	18	8	5	2	3983072	18	9	30	2	3133072	18	10	6	2	3063072	18	11	14	1	4573072	18	12	25	3	2913072	18	13	20	1	3273072	18	14	32	1	2773072	18	15	23	2	2463072	18	16	2	1	3103072	18	17	12	2	4003072	18	18	15	3	4133072	18	19	13	3	2533072	18	20	33	3	3163072	18	21	36	2	3913072	18	22	45	3	3053072	18	23	9	3	3143072	18	24	44	1	3903072	18	25	11	2	3523072	18	26	37	3	4703072	18	27	35	2	3503072	18	28	40	1	3363072	18	29	31	3	3673072	18	30	27	3	3103072	18	31	43	3	2873072	18	32	39	3	3093072	18	33	48	2	7033072	18	34	7	3	3433072	18	35	18	2	2793072	18	36	17	2	10343072	18	37	38	1	5173072	18	38	16	1	2803072	18	39	34	1	5243072	18	40	1	3	5463072	18	41	29	2	5063072	18	42	47	2	3023072	18	43	24	2	3893072	18	44	21	3	2383072	18	45	28	1	5063072	18	46	22	1	3333072	18	47	42	2	3463072	18	48	46	1	3303072	19	1	12	1	13923072	19	2	15	2	4213072	19	3	13	2	10133072	19	4	48	3	31763072	19	5	16	1	12663072	19	6	21	3	7453072	19	7	38	1	6813072	19	8	20	1	6213072	19	9	1	2	5333072	19	10	40	1	4933072	19	11	29	1	6553072	19	12	27	1	7833072	19	13	2	2	4383072	19	14	18	2	6173072	19	15	23	2	8333072	19	16	19	3	6443072	19	17	5	1	8493072	19	18	24	2	5193072	19	19	43	2	4403072	19	20	25	2	6393072	19	21	37	3	6183072	19	22	28	2	4663072	19	23	45	1	4883072	19	24	39	3	4543072	19	25	14	1	6063072	19	26	36	2	8023072	19	27	8	2	7223072	19	28	4	3	4463072	19	29	7	2	3713072	19	30	31	3	6023072	19	31	35	2	3823072	19	32	44	2	2623072	19	33	30	3	4543072	19	34	26	2	5423072	19	35	47	1	5343072	19	36	41	2	4303072	19	37	11	3	3063072	19	38	32	1	4573072	19	39	17	2	3853072	19	40	22	1	5383072	19	41	3	1	4003072	19	42	42	2	3993072	19	43	9	1	4253072	19	44	10	3	3463072	19	45	46	3	3773072	19	46	6	3	4493072	19	47	33	3	5353072	19	48	34	1	4633072	2	1	8	1	18803072	2	2	2	1	9283072	2	3	32	2	17003072	2	4	30	2	3733072	2	5	11	2	5903072	2	6	29	2	3523072	2	7	10	1	4493072	2	8	38	3	3943072	2	9	5	2	3583072	2	10	21	1	10483072	2	11	4	1	6293072	2	12	39	2	4493072	2	13	15	2	4053072	2	14	12	2	5143072	2	15	45	3	4043072	2	16	24	3	3703072	2	17	27	3	3283072	2	18	23	1	3573072	2	19	34	3	3443072	2	20	37	1	5833072	2	21	9	3	2313072	2	22	40	2	3543072	2	23	14	3	3093072	2	24	16	2	3673072	2	25	6	2	2453072	2	26	25	3	3073072	2	27	44	1	3023072	2	28	17	3	2763072	2	29	35	1	2643072	2	30	42	1	3113072	2	31	31	2	3863072	2	32	26	1	4453072	2	33	3	3	6263072	2	34	18	1	6213072	2	35	19	2	4053072	2	36	22	3	3073072	2	37	47	2	2853072	2	38	20	2	3533072	2	39	46	1	3243072	2	40	13	1	2903072	2	41	28	1	4243072	2	42	1	3	2643072	2	43	41	3	2313072	2	44	36	3	2583072	2	45	43	3	3543072	2	46	7	3	4373072	2	47	33	1	19753072	2	48	48	2	3033072	21	1	14	2	16373072	21	2	28	3	2643072	21	3	48	3	5533072	21	4	25	3	8033072	21	5	20	1	9133072	21	6	39	3	7713072	21	7	42	2	2963072	21	8	34	1	7843072	21	9	8	3	12403072	21	10	6	2	3983072	21	11	19	2	4403072	21	12	46	3	4293072	21	13	40	1	5293072	21	14	11	3	6303072	21	15	9	1	7043072	21	16	18	2	5843072	21	17	23	1	4093072	21	18	13	3	5033072	21	19	44	2	3093072	21	20	16	3	3853072	21	21	17	2	2793072	21	22	1	2	3953072	21	23	24	3	4223072	21	24	22	3	2933072	21	25	35	2	4143072	21	26	31	3	10053072	21	27	47	1	7393072	21	28	5	1	3223072	21	29	32	1	4633072	21	30	33	3	3453072	21	31	2	2	4233072	21	32	37	2	3763072	21	33	43	2	3193072	21	34	36	2	3153072	21	35	38	2	2473072	21	36	41	1	3103072	21	37	4	3	3993072	21	38	12	3	3313072	21	39	21	2	4083072	21	40	26	3	6773072	21	41	3	1	3593072	21	42	7	2	9873072	21	43	10	1	4943072	21	44	45	1	3183072	21	45	29	1	3113072	21	46	15	3	2913072	21	47	27	1	2643072	21	48	30	3	3123072	22	1	34	3	27863072	22	2	19	2	10083072	22	3	28	1	7253072	22	4	30	3	16973072	22	5	3	1	7223072	22	6	38	3	8323072	22	7	46	3	6293072	22	8	32	1	6243072	22	9	23	1	9353072	22	10	12	3	3353072	22	11	22	3	4803072	22	12	37	1	5383072	22	13	44	2	2743072	22	14	5	1	10123072	22	15	9	1	33063072	22	16	33	3	9863072	22	17	26	2	12413072	22	18	11	3	5273072	22	19	8	2	8693072	22	20	40	2	7043072	22	21	2	2	5523072	22	22	14	1	26903072	22	23	36	3	26153072	22	24	15	3	7203072	22	25	27	1	14203072	22	26	43	2	4683072	22	27	31	2	7363072	22	28	6	2	7683072	22	29	29	3	7733072	22	30	13	1	2363072	22	31	18	1	2473072	22	32	35	1	5493072	22	33	7	2	7523072	22	34	42	1	3373072	22	35	10	1	10253072	22	36	21	1	2183072	22	37	4	3	2263072	22	38	41	3	3773072	22	39	39	2	4343072	22	40	47	1	3413072	22	41	1	2	6303072	22	42	25	2	17283072	22	43	17	3	21173072	22	44	45	1	2943072	22	45	24	3	3513072	22	46	16	3	4663072	22	47	48	3	2343072	22	48	20	2	3093072	23	1	16	2	30453072	23	2	4	3	15233072	23	3	32	2	7683072	23	4	10	3	3083072	23	5	38	3	22233072	23	6	44	2	4873072	23	7	20	2	5803072	23	8	24	3	2453072	23	9	28	3	6263072	23	10	1	3	4583072	23	11	22	3	3383072	23	12	37	3	4673072	23	13	23	1	2053072	23	14	13	3	2273072	23	15	5	1	3323072	23	16	25	2	9703072	23	17	42	1	8723072	23	18	33	1	9303072	23	19	31	2	2643072	23	20	12	2	2643072	23	21	47	1	2483072	23	22	39	2	48053072	23	23	29	3	3393072	23	24	17	3	6913072	23	25	21	1	6963072	23	26	45	2	5443072	23	27	30	3	9193072	23	28	11	3	14193072	23	29	9	1	2903072	23	30	18	2	10493072	23	31	19	2	6623072	23	32	36	3	53003072	23	33	34	3	3063072	23	34	8	3	14713072	23	35	3	1	5943072	23	36	27	1	8203072	23	37	6	3	14283072	23	38	46	1	18403072	23	39	35	2	8293072	23	40	48	3	2713072	23	41	15	2	4183072	23	42	26	2	5613072	23	43	41	2	29273072	23	44	2	2	24693072	23	45	14	3	6083072	23	46	7	2	2933072	23	47	43	2	2853072	23	48	40	1	5793072	24	1	4	2	10083072	24	2	33	3	19103072	24	3	12	1	20053072	24	4	34	1	3393072	24	5	25	3	10113072	24	6	18	2	3593072	24	7	36	2	4433072	24	8	8	1	2403072	24	9	27	3	3663072	24	10	30	2	3393072	24	11	41	2	4853072	24	12	9	3	2743072	24	13	29	2	8053072	24	14	32	1	3233072	24	15	45	3	3373072	24	16	6	2	3373072	24	17	28	1	4983072	24	18	42	2	2733072	24	19	39	3	3383072	24	20	14	1	5153072	24	21	3	3	3733072	24	22	20	1	2863072	24	23	23	2	2913072	24	24	2	1	7133072	24	25	26	1	2763072	24	26	24	2	9663072	24	27	10	1	3083072	24	28	5	1	5583072	24	29	11	2	6493072	24	30	40	1	2773072	24	31	31	3	2653072	24	32	19	3	3923072	24	33	16	1	4503072	24	34	21	3	2813072	24	35	44	1	2863072	24	36	47	2	3703072	24	37	13	3	2963072	24	38	48	2	4973072	24	39	15	3	3383072	24	40	7	3	2743072	24	41	46	1	2913072	24	42	17	2	20103072	24	43	1	3	4383072	24	44	22	1	3293072	24	45	43	3	2953072	24	46	38	1	3193072	24	47	35	2	3293072	24	48	37	3	4223072	25	1	34	3	24723072	25	2	30	2	16353072	25	3	38	3	14623072	25	4	17	1	6463072	25	5	23	1	5153072	25	6	43	2	9653072	25	7	20	2	8193072	25	8	8	3	6753072	25	9	25	1	6453072	25	10	45	1	5963072	25	11	4	3	4853072	25	12	3	1	4823072	25	13	44	2	6883072	25	14	39	2	13023072	25	15	18	1	10613072	25	16	11	1	12383072	25	17	47	1	10643072	25	18	14	1	6003072	25	19	31	3	4953072	25	20	1	2	7983072	25	21	37	1	7103072	25	22	2	1	8993072	25	23	7	1	8033072	25	24	10	3	5273072	25	25	40	3	8383072	25	26	5	1	5363072	25	27	16	1	6403072	25	28	46	3	4143072	25	29	9	2	8773072	25	30	28	3	9843072	25	31	35	1	7123072	25	32	41	1	8803072	25	33	15	1	8473072	25	34	27	2	6633072	25	35	21	2	12063072	25	36	32	2	15063072	25	37	12	3	8303072	25	38	48	3	8323072	25	39	24	3	8513072	25	40	33	3	5203072	25	41	13	3	5573072	25	42	36	3	6313072	25	43	29	3	4673072	25	44	19	2	5733072	25	45	22	3	6033072	25	46	42	3	5123072	25	47	6	3	8983072	25	48	26	2	4983072	26	1	28	2	38503072	26	2	25	1	650